sequence_id,frame_id,ax,ay,az,gx,gy,gz,label
0,0,1.014139833358455,0.017885451032592037,0.05244811619407981,-4.434658613206943,-2.271761974330212,-0.5638596620150491,normal
0,1,0.9822610757876427,-0.056062621115690436,0.05517036013189224,-1.7701013984227894,0.033066657162925985,5.950819705161297,normal
0,2,1.0558476778808203,-0.05992573797747393,0.03556408348926207,1.2365239669253856,1.0221757551691224,0.8018359079241919,normal
0,3,1.026613461897364,-0.11375455932816354,-0.29335781690785967,2.027804592722605,-3.9417242289392505,-4.27007396903752,normal
0,4,0.9512737945580727,-0.11083742563598896,-0.12227489310492226,3.232969102380845,6.819799772938155,0.7368871515253785,normal
0,5,1.0007451901455844,0.17780683334477387,-0.11293641990368995,-1.1456708536364069,-1.3401919787291894,-0.5336061570037031,normal
0,6,0.961224818401029,0.05080579492617973,-0.04876329356406428,-5.3123944677965,-2.4369670512812824,0.13293046914257695,normal
0,7,1.012124863227312,-0.027655819731050576,-0.09252542343322764,1.1837568492858772,-0.6293252768281553,3.3387056368437085,normal
0,8,0.9690327014420769,0.063556233077486,-0.19889123145506737,-2.4080217785622913,0.8737496929663284,0.4582704759262758,normal
0,9,0.9966794498726526,-0.03846287821587744,0.10029376548492944,1.5246072344154993,-4.217412992290194,5.7278674679463855,normal
0,10,1.0328911623938137,0.0462620396147716,-0.1496016658506408,-0.5551932236006378,-0.6132680830497632,4.210262586461312,normal
0,11,0.981566756346902,0.16730508014820986,0.038793872963326925,0.5821557818919588,3.8968386592053212,2.1442411591021204,normal
0,12,0.8724406755293638,-0.11098152665539732,-0.05145882350138312,4.1681462452641735,-2.6295230699103986,-1.2896300262378544,normal
0,13,0.9758275297472769,0.004136583348059994,-0.08843995459881687,-1.4986861170529933,-2.516569931215013,1.2860264500894536,normal
0,14,1.0061651727327716,0.12695208486481688,0.03913554411694946,0.4067028594019326,2.064462007131353,-0.510120576224014,normal
0,15,1.0573159513214085,-0.12499749761911393,0.2683693399265503,-5.8487228134492355,0.9090497101998627,0.9085227629152284,normal
0,16,0.8791100590433448,-0.10621936298329748,0.15019686011997235,-3.565156605202448,-3.974288891602199,-8.53290815625105,normal
0,17,0.9113019456485786,0.0286862387624571,0.01622752576745463,-3.563534673882938,1.5858065786104936,-2.58830348112568,normal
0,18,1.0371825697555006,-0.047595682559556186,0.021173369631449113,0.8164992025710465,1.5711163127422645,3.025822780868264,normal
0,19,0.9548974832730827,0.04414668990712796,-0.07881700436540186,4.332123387914597,1.961561962121524,-5.885468230044152,normal
1,0,1.0067761671250162,0.130439488307638,0.02365309639670002,2.3911921898585082,-1.2387411627811327,-0.004253046844569382,normal
1,1,1.0471959210302315,0.0643622017451186,0.18774136126723417,-0.8268552314382049,-2.6603836228618514,-1.708395262045269,normal
1,2,0.9975625151962034,0.019625614467668046,0.11386464102681933,2.2981205374295275,-3.4179512630379,-0.3604326966622918,normal
1,3,1.0100702551048013,-0.13038474499055994,0.10592959443374404,2.605027042907412,6.163572079145943,2.472433434348985,normal
1,4,0.9245550836899856,-0.0034353439929849295,0.02323895787790344,-0.13800143742880555,3.40840414987374,3.05926563324184,normal
1,5,1.125413302913768,0.06710220028766316,0.11542381066874144,-2.3838804223282257,1.5443496889282018,0.5891652227373052,normal
1,6,0.9695277186991036,-0.17946156730408763,0.042374930244526085,2.2227235413423836,2.1163717184777324,0.31917166648423595,normal
1,7,0.9776060472608118,0.029006367612932044,-0.14720872096093568,0.6800477405757959,2.942136977950526,-6.498710853631892,normal
1,8,0.9808360339702838,0.028058557189012484,0.012729517720458928,0.6547651718604028,-0.5971454601072884,-0.011700825421118832,normal
1,9,1.072585788852893,-0.04329244471168716,-0.11872293962517916,2.109494469609381,0.37003969741274656,0.6103395956926263,normal
1,10,0.9458053105476337,0.06517658644208045,0.06990856689945522,-0.7712680863841408,-1.403695668334206,-2.99547539667351,normal
1,11,1.0090848057622959,0.07659228746016686,0.08151847130787965,4.934942558513356,-6.97782901803749,0.6067091277498413,normal
1,12,1.0866594209744773,0.005914021320818089,0.08150702858065895,0.09845678713440134,-1.3353115764812804,2.4377318855109613,normal
1,13,1.0140801880404346,-0.014110369991188526,0.08089866551733421,2.477612786716759,3.062682898373375,1.0898046965699317,normal
1,14,1.095333218207265,0.057689994818637694,0.1487771414355979,-0.8613209125712328,3.694530335477666,2.5553708234718777,normal
1,15,0.972056233051144,0.06640167973157017,0.0010907986902649073,4.477713045492722,0.4024783486372804,2.384684105275559,normal
1,16,0.8869370974623534,-0.013327371611252553,0.11660066259352445,0.39277354154578414,0.5743271837205087,3.132425022193524,normal
1,17,1.0141152755448,-0.22827443676059428,0.06588296153802768,-2.2967763543459587,1.3876963698314075,-2.2848136140182502,normal
1,18,0.9534909633174429,0.12428320383771636,-0.054869888206567144,-4.054134087974957,3.2516889322149183,1.1949178827513611,normal
1,19,0.9729316116164379,-0.01253208055193509,0.09419930011927091,3.531892798820905,3.596973961636337,-2.5531212093090874,normal
2,0,0.9802916223039386,0.24555106992551556,0.07855235955046613,6.342605419898218,0.7445648843290367,4.411520313161733,normal
2,1,1.060143775202655,0.06766882620017282,0.04380476861170988,-0.7897106606397122,-3.80326166438713,0.4859095721424922,normal
2,2,0.9843027877749554,0.1391972835598568,-0.01668931055521226,-0.6620113754771522,4.641130922238528,-3.7751049086973905,normal
2,3,0.8912654561048144,0.046233829924326696,-0.03492921183529135,-7.858666069105054,1.8325313138085124,-0.8702073576445801,normal
2,4,1.0686531159015757,-0.012846858096500869,-0.014958184038769555,-0.5413265586973582,0.23988575862404887,5.591012624924774,normal
2,5,0.9485816963964678,-0.01403760504898429,0.05938394168985949,1.5677236567880777,1.9260477853229956,-4.60994531505235,normal
2,6,0.9846070726931222,0.08725444232432578,0.011214067715784865,3.1023376536912304,2.9676518260467817,-0.23889294016071008,normal
2,7,0.9971868501535797,0.03734239779087472,-0.08495250373836508,-0.5863783389740017,1.0604758736932676,-4.090552341523898,normal
2,8,0.9536266867952601,-0.07700938117116882,0.15677743449713324,2.198891495514728,-3.9381876335817276,-4.748025764129766,normal
2,9,0.9884752822124117,-0.020296743277154757,-0.05940968624897056,-0.8812706676559348,1.3895796360261348,-3.448136289687687,normal
2,10,0.877359937565217,-0.025040684893963206,-0.012861846803536671,-2.030263812986981,-2.473903279371558,-1.8507274280050445,normal
2,11,1.0337154912704176,0.10161114980933683,0.11078415900035754,3.6657322247896946,-6.6129858607351215,4.826780119132959,normal
2,12,1.0427774360978186,-0.006570819130733752,-0.07211339526130149,-0.009883718298357947,-2.792236309322833,-1.7503044934246135,normal
2,13,1.0016313430192711,-0.05505427327736454,0.05644071233820176,-2.5769389537656777,4.102012523769898,0.31420495775676716,normal
2,14,0.9899543817314878,0.1469058575800812,0.17355231158119377,-0.6913480592002675,3.858140552053632,4.831445633603308,normal
2,15,0.9618867543293541,-0.005533794423781494,-0.0536392332512475,0.8655790733055655,2.464188126694057,6.8625844606309325,normal
2,16,1.0378658913465688,-0.12436208026647216,0.04422830434626656,-1.568294974027724,-3.927154769883183,0.17547779462823102,normal
2,17,0.9516423719212928,0.0142367908595289,0.05793171117485705,-0.7200545284651979,3.6103714079563964,-0.744225392732999,normal
2,18,1.0313347991402653,-0.03746722936654619,-0.09424266174212795,4.790994865706809,1.0086875468772254,1.665108343008042,normal
2,19,0.979255167000886,0.11820407846249824,0.02723202539647665,0.5115788008100712,1.2812193855647354,-0.7188564513560955,normal
3,0,1.011045920792812,0.10828894188093491,0.07476996364413517,2.8018415517967132,-4.4148741258122755,0.7827505928416509,normal
3,1,0.9064456300819048,-0.00906519131988205,-0.04795176419728911,0.03778211335985876,4.217305385524732,-0.2895817306443644,normal
3,2,0.9989020459054143,0.02395734799068765,0.043259849488465806,3.8177843189090197,2.2178703996976887,2.0253980741023963,normal
3,3,0.8853721069803878,0.09707278446671358,0.06606781512399094,3.7092897948405827,1.097027737564151,-0.060976779281206914,normal
3,4,1.0413610035492369,-0.1158795171667235,-0.05329272749801627,1.6430675745094656,1.386575207815349,-3.299092798695959,normal
3,5,0.9373185506669731,0.17319892712629784,0.17575178816178305,4.551324124690725,-2.1542645388168298,3.0770346212369173,normal
3,6,1.0174072979898638,-0.1129704233871576,0.0045881921585228845,3.9448257010631456,-3.017114087258994,-1.3949879401755696,normal
3,7,0.9328697444027478,-0.14989830323433992,0.0671310675651302,-5.547429282295276,2.2619081462822592,-3.9538963224688874,normal
3,8,1.039661457990293,0.15903424666370103,-0.04527858471125365,-1.0870176169495027,5.75096980091305,1.4713732676207778,normal
3,9,1.0011172549165728,-0.012534778956027413,0.062294065030645274,-3.480634860733681,1.248496677218022,-3.351163137715695,normal
3,10,0.9813273981768963,-0.15772176856777734,0.07365322190387757,-0.5087509598142865,-1.2281471302452682,-3.06600058605148,normal
3,11,0.9498420612260917,-0.08540883648837676,0.19085756671442167,-1.2554140268723124,0.38993860314301976,0.12068183857075285,normal
3,12,1.04384767676627,0.05340572813719501,-0.07292065936066032,-0.6672435034170784,-2.1687623117705974,-5.441273022661044,normal
3,13,0.958900172248299,0.047029085613777916,0.1861581138260351,0.13453700699587107,-2.9881529311145902,0.37031736393083026,normal
3,14,1.0207916594907716,0.15160353149864758,-0.036277211341792424,-0.7504556161472465,-1.8418326678286152,-6.469348129203045,normal
3,15,1.0698258240138137,0.070958637223069,0.08313846278185631,1.790964728071999,2.021871765937594,-4.645930901034042,normal
3,16,1.006267996190204,-0.039129552299127304,-0.020230625271016964,-3.0000816431770847,5.436240431914664,1.7038925586645615,normal
3,17,1.0213619913130993,0.1421123382226172,-0.032643328581787194,4.5880292554851865,2.154379206661444,-2.410947581422515,normal
3,18,0.9083596051718987,0.016824181337781862,0.15518601135938248,3.970116360630703,3.123009949676539,-3.274416280536343,normal
3,19,0.9766127967864899,0.00847008377353109,0.0017336026115809785,-3.6032138521933885,5.9553273768360455,3.0650780686893224,normal
4,0,0.9409219760557036,0.09223237087732034,-0.09761695273231837,1.0378776240412253,3.2556655195791357,-0.36922329202052384,normal
4,1,1.0156273339798136,0.004834200130960499,0.008735831434443661,-4.756856227711235,1.3919358519241634,-3.2440233897716406,normal
4,2,0.9518477447129658,-0.16786292662535574,-0.10854353165622897,-1.2584770015427265,-0.1440711604304447,0.8125206636065725,normal
4,3,1.08399772970751,0.018445704906855796,-0.015849353836951977,1.0036972568106988,2.17815363494337,4.347088928370332,normal
4,4,1.0180140431500027,-0.02774395442100295,-0.015697428874903746,1.3627531449355845,3.0335345769520012,-4.799943734249846,normal
4,5,1.0177103759253068,0.12635820136560225,-0.06828150253086407,5.606006622322425,-0.8783472093753462,-2.9224342917631447,normal
4,6,0.9810084184157887,0.056418185952550395,0.23372156882272496,-3.0813711328302116,-1.952675588484841,-0.1529474879588901,normal
4,7,0.9661006142851637,-0.04196714642068933,-0.15998927609722724,-0.03656832782562576,3.80664142665342,-0.1435053967651919,normal
4,8,1.0197013383626905,-0.06843413754732033,0.0320858613411314,2.45366336745987,2.008933848351135,0.12651450223932884,normal
4,9,1.074725844028158,-0.10286298874383132,0.10234187340448503,1.6535690422660967,-1.5003611492818076,-1.6637833296031341,normal
4,10,1.0944377852393115,-0.024324143534530718,-0.02717347461896254,-0.5544918667568776,2.4167253174146808,-1.781423563855673,normal
4,11,0.9907321149768704,0.11680188808856978,0.20603942137350525,-2.2877571645236268,5.52708383479726,-1.9689724211472237,normal
4,12,0.9162283162152093,0.10256011012296824,0.040259517262191874,0.9233058215268624,1.503669685462535,-0.05103267755575784,normal
4,13,1.0542689749863945,-0.22854705722068755,-0.1903161540776122,0.9958424099727762,-4.373986536289474,-2.8364042425141447,normal
4,14,0.9688043574795706,-0.2237074326964475,-0.06070257033455978,1.6937551343345203,4.968914474533606,0.13361633115406568,normal
4,15,0.9570356764854953,0.2653641139142208,0.05986983295689283,-0.24608952116235666,1.0529546374128975,2.8166875998312344,normal
4,16,0.9857987320362996,0.1870074127588029,0.14298056286761435,1.4894355856510597,3.2428326783295924,3.987383748540074,normal
4,17,1.0746329965633994,0.14187352382040888,-0.04658273399959333,-2.8368937265509073,-1.5998852719167154,2.0821978637816922,normal
4,18,1.0215666524725735,0.009203371261677992,-0.09809420150781975,-2.835164399640748,-1.4873747663224937,0.5829899244231389,normal
4,19,1.006309405666568,0.09823801233205494,-0.04326722376577715,-2.9300807024697852,4.259636125838328,1.6766818233286496,normal
5,0,0.9735064625146077,0.0896258180449934,-0.028634247262728913,-2.513490030946171,1.6548035388845463,-5.631410055563857,normal
5,1,0.9608196984314379,0.21404132357972788,0.0736964387994472,1.6085815494364704,0.2558746975347257,-3.367794799372196,normal
5,2,1.0227650869292577,0.009735784797883012,0.09294165190740442,-3.7917318463071434,-1.4910421040694049,-0.7388061892309928,normal
5,3,1.019731886573978,-0.1898380307452106,-0.12859155387168927,1.1948058438441622,1.626132124041177,-2.9628633149904227,normal
5,4,0.9306674217075468,0.0411403681291632,-0.0043159126030670346,4.052264743129609,0.07911651082204606,-1.2222657664235315,normal
5,5,1.0163720436632395,-0.11380710183619391,0.17627348233184467,0.7693754637326642,-4.553752960028676,0.015879106857581548,normal
5,6,0.966283006678597,0.1042821945329177,0.08123864218935029,-3.7214584088470124,0.05995683917597754,-1.7384245055848542,normal
5,7,0.9859997619260205,0.14180477106803305,0.08296295553525385,-0.7869963816221863,1.4932631637366485,0.024746111650302945,normal
5,8,0.9869914150342323,-0.04085461241784524,-0.21817168056874234,0.18503306742848136,2.842647059699183,0.9028024231613844,normal
5,9,1.010446509564432,0.08077415006071313,-0.08926397521426822,-0.3826939946000526,-0.8232699908896135,-4.138709135957271,normal
5,10,0.9324634219557979,-0.08181881541834893,-0.14865125984558664,0.6639030959791103,-1.3994018093490466,-1.691720631531541,normal
5,11,1.0047152381259432,-0.09608911976663545,0.06583174541135382,-3.7763455258316516,5.31401622279098,-2.125401397763019,normal
5,12,0.9097312213878094,-0.15001953340338836,-0.15926576146202076,-2.3010552225747536,1.6048476990806624,5.414519991577799,normal
5,13,0.9970389213029442,0.08430965484969238,0.08321876811296929,1.0863655098795642,-1.2907999604590268,2.76423098935426,normal
5,14,1.0031038510621932,0.025876378338149226,0.2768315947921929,-2.47555515772756,-1.406886122536471,4.186240257035081,normal
5,15,1.0367956255278514,-0.18091872245083057,-0.11674811787334594,0.27812299329398027,-0.9484950566417252,-5.8577304604673675,normal
5,16,1.0498389889768704,0.04886101058445405,-0.09015928332249823,-0.8567851587111026,-2.6060656372296727,-0.886899478478071,normal
5,17,0.9638648387532169,-0.0039075357196337165,0.02148403167292666,1.4561609600378695,-2.7769124949959374,-5.041654113690354,normal
5,18,0.9659610813417598,-0.02241919630663033,0.0765649833913308,0.6462298073103296,-3.2513754386821074,0.09018616584828046,normal
5,19,0.9813394589236794,-0.07407238926596939,-0.18238295283180814,-0.57751512830648,0.42348300728665644,-1.6448267104883083,normal
6,0,1.0203998553050995,0.03882577895605369,0.07807034583552688,6.1568524248111975,-3.514769785441303,-5.313867185278116,normal
6,1,0.984460929984167,-0.06693992302772724,0.01754370098730644,2.6991531153945214,0.8269263678994323,2.8285697129639846,normal
6,2,0.9499021458174085,-0.004026480959259926,-0.04845314069605935,-1.9717590244863281,-1.4035421361583573,-4.234681304479883,normal
6,3,0.9323230861266616,0.13098210150271608,0.01601372033274035,-1.5748780489623062,0.06763591019004739,1.7840773858853145,normal
6,4,1.0296637883675284,0.09298194774177632,0.07715937459500594,0.03635755637646938,3.3751555507525888,-4.859244976473136,normal
6,5,1.0063779204465864,0.005348362773257247,-0.036506462756041046,-0.3251170571945139,1.7526713774062437,-1.4542079893876443,normal
6,6,0.960032368700198,0.03329373254382175,-0.0676223855443303,-5.008134144640755,5.62347307769938,1.42503620627854,normal
6,7,1.028623514321732,0.08059678407408641,0.1327776725460081,-0.5135189852713283,1.315041988525992,6.108690057846321,normal
6,8,0.93544379069334,-0.07669417977055812,-0.12446308250142327,1.1150680866585212,-0.9734134406124647,3.025304391321918,normal
6,9,0.9975017016532182,-0.020415530910452027,0.08926673382711384,4.410157865861427,3.1529267310437596,1.558034834675607,normal
6,10,1.1132323261226191,0.06839472559159757,-0.02073023226274068,3.5762797373925324,3.729128439212566,2.360259501015415,normal
6,11,1.0081131291587895,-0.010989408516715303,-0.18468463812226288,1.2437542429528674,-3.329044361847261,0.0514810730716286,normal
6,12,1.0410696725871025,0.0348647436340042,0.18100235576206095,0.4191635145345932,3.1482191746863544,-0.04301637243388714,normal
6,13,1.0638489157343936,0.2184210246633899,-0.030324612689698906,1.4402187149212784,4.265832916826101,-5.465234521590364,normal
6,14,0.9296448085422478,-0.12610487775980664,0.03602319153849047,-5.7781039974287465,-5.152407896431352,-2.1518504777938565,normal
6,15,1.0424073516636057,-0.0019313499569614434,-0.17791330347619969,-3.713534048009201,9.578883147527792,-0.16424931314878324,normal
6,16,1.009030395131921,0.09592022613220201,0.037644516517289804,-4.8241471018523505,1.2638380084024523,3.0182067417793306,normal
6,17,0.9576564602701776,-0.044898479405125084,0.16982249214615402,-0.8662529763276634,-1.1341331697266697,0.1143146403053687,normal
6,18,1.0435376094816777,0.05951010471415291,0.05837191958102683,-2.296118998266299,-1.5909896137413928,0.2510355557738404,normal
6,19,1.0414045554514224,0.13284022494142086,0.07861927914759154,1.2804847116114941,1.4440403962684434,-0.08987639532783866,normal
7,0,1.0475287068374415,-0.09090604199283701,0.12002976519203049,-1.7069180987757444,-1.4571713949094387,6.282680268459407,normal
7,1,1.0036444654270371,0.008884793610030995,0.014697814098113125,1.4753953954334698,-3.7992943337196854,-4.644076856803161,normal
7,2,0.9655278153378491,-0.06198949403097066,-0.2368955192129294,4.43006822346595,-2.8214745160985197,2.387066440965232,normal
7,3,1.0173844387342095,0.08611866816234506,0.20362288099627596,-4.151642706259764,-2.5221351962994207,-5.622440297298699,normal
7,4,0.9727933311760967,0.04630289738431503,-0.21432374972715046,-3.271005291426987,2.8109533024154043,-2.030253022438286,normal
7,5,1.034100660356297,0.14308255785658602,-0.01599320377072056,-1.0180925377936416,2.230865295266887,-2.063607889221145,normal
7,6,1.0024849660552917,0.024565158678568663,-0.05894178572804992,-3.0163556265056672,3.703355212859846,0.9598296085755467,normal
7,7,1.0502483785538987,-0.023921026487761107,-0.1076519745156187,1.6858805797676253,2.8317456615078975,-1.1765544213601113,normal
7,8,0.9894908265391588,0.015703013109442887,0.13737102476151783,-0.5260192506180761,0.6573130002717303,0.26063760198082975,normal
7,9,1.0075396182787753,-0.07011428483581272,-0.1678821013491049,3.6997088104683584,-3.794897351254681,2.482767939488755,normal
7,10,0.9630998956499425,0.017062454920065653,-0.027798559670697904,2.8875353783959294,1.471255852027327,-1.1095586139625837,normal
7,11,1.0230275082420384,0.06373978714288439,-0.03301678451286956,0.4109799606220934,-1.3589451284486516,2.736880848411644,normal
7,12,1.0405308755812428,-0.039090091006192644,0.22445431109611247,3.79281532139324,0.7684453091933775,-1.8122110212581588,normal
7,13,0.9975419418296484,0.019702091680557032,0.023197488995641526,0.9519729662354859,-0.2164757779646384,-4.66202829386469,normal
7,14,0.9649831589561424,0.13865502172609134,-0.028337635383652162,4.503686791135714,-1.1165632470816067,0.6428316631337572,normal
7,15,1.017545905767439,0.020481860217452914,0.03981704475422832,0.4500555236358388,2.0074427572649105,-1.5309560686180688,normal
7,16,1.0320711257132313,0.02861354581281236,0.0375196215272349,-5.285860936616048,-1.223542528157707,-0.5389286047811461,normal
7,17,1.0124943831655309,-0.027040862800062373,0.02873766241844642,3.142752554600704,2.349735830238294,-0.2889723775036476,normal
7,18,1.0142789888137775,-0.01829782969267157,-0.18010468596328613,-0.7081992276112399,5.496573986878223,-3.2019116229413793,normal
7,19,0.9382058419698869,-0.033809178280207845,-0.0400488807734444,-6.175464203121187,-1.274288488808502,-1.4930871115008888,normal
8,0,0.9790661118644425,-0.055602558016405956,-0.09305007172315939,3.7900350586976965,4.207906632710301,-3.909433059672022,normal
8,1,0.9413943073596021,-0.2619215234104412,0.07220820931088034,2.249936226054042,1.935519422965923,1.1099084541444848,normal
8,2,1.003549124787204,-0.00960175102975902,-0.060811074511456766,1.980954890549461,-0.5989672665711683,-0.9121075849283562,normal
8,3,0.9357484542403371,-0.04014502524311437,-0.022840617385840742,-5.908834230614534,1.3024951349351612,2.203138842558114,normal
8,4,0.9807267753806374,-0.001297606336769919,0.015241111931715835,-2.256925623788852,2.0068300914258317,1.959862821592518,normal
8,5,1.0138974202705766,-0.21248004759685957,0.09441526041535117,1.714674633825966,0.4985189848783542,2.717931318570544,normal
8,6,1.0278897600107966,0.11158329699288727,0.04695771384109521,-3.0966554045042214,1.5114507660842171,-2.5082330501696295,normal
8,7,1.0042862474463565,0.07445135002838525,-0.03288199409012429,-3.0333218931209442,-0.5854123790313064,0.23044881218398672,normal
8,8,1.0246366023268267,0.13905301281724936,-0.03468753315552939,-0.5071591020777857,1.7676477009032974,0.17826377097396479,normal
8,9,0.9375798501082763,0.043962535297458,0.06583845624959425,3.436349523955817,-1.0342833318727143,0.9102491800249157,normal
8,10,0.9979251979091898,0.06349431420260562,-0.035589553844156734,-0.5559058699768101,0.07559090367370518,2.755337024946088,normal
8,11,0.9175859407465264,0.025851824950169407,-0.04566281453177613,2.3191190752491986,-4.030956632039652,-6.189066933988256,normal
8,12,0.9602953368681442,0.1642648507616948,-0.10095855452258246,-0.3069363897286937,-4.318531130690057,-6.971767730037486,normal
8,13,1.027283590062366,-0.08240050002589641,-0.13168084321960463,3.648622500176054,-2.2668866250089788,-0.4599630911597447,normal
8,14,1.0062969618129707,0.1760527258590834,-0.02176389583396701,-1.2953406325060357,1.0188822499813481,-3.790097749692859,normal
8,15,1.011595454782255,0.16815956724222128,0.09031633870416655,6.216075743769215,-2.762012250872636,-0.3780796362636294,normal
8,16,0.8940344004118536,-0.14329527548191398,-0.06780507725651466,-2.225602856754801,0.5990235673178915,-1.0915057681749192,normal
8,17,0.9944767134103302,0.0036792961139622037,0.0962726705985052,2.8792337905250824,1.3597530976518923,0.06892368735844509,normal
8,18,1.0201972291077002,0.03424235583592027,0.000312741214219809,-8.312601134722728,1.0532046884983952,5.054154825682119,normal
8,19,0.9602739101901696,0.06788716871163596,0.1139137695745569,1.6431477436056912,-2.0251007453068866,-1.23083123381373,normal
9,0,1.007920462891705,0.024527991015057163,0.1553328305318762,0.9563737907780714,5.211380392538174,1.1788182648017036,normal
9,1,0.933871660380486,0.03660149411367899,0.08747905160752417,0.7845407202070355,1.8823056091335435,-2.1739383565066763,normal
9,2,1.099536394148392,-0.10139081173296603,-0.11347103557455883,-1.8917770416082031,-5.259798846266728,-3.5261371343023082,normal
9,3,0.9593107003545439,0.00010528319589397334,0.340603204637231,-6.262897234936419,0.3250910311527342,-2.122510077311392,normal
9,4,0.9803334899207496,-0.1088544788642641,0.11841868763839598,-3.1474572181382463,1.9200796408945315,-2.045587679279273,normal
9,5,1.0702526936090235,-0.1269745271271707,0.2791549198272327,0.8531097727614584,-2.7777030003678,2.6111772446681085,normal
9,6,1.0382792968821015,-0.03472114491609182,0.054953047087217946,8.212472871153977,-2.4046210853285004,2.32843289164501,normal
9,7,1.0114006067281345,-0.06231033633230583,0.1300156007992259,-3.8864076117575865,-6.028301752026667,-5.770100872228448,normal
9,8,0.9098970794035468,0.07120197100122677,-0.016430158109630274,-1.6841374589807798,1.7228597699661778,1.4739077565451113,normal
9,9,0.9697146234437789,-0.07038055059893875,-0.08151959044061126,0.6140659969223347,2.4117399963355313,-0.9005080306360073,normal
9,10,0.970495176753435,-0.010381013074429693,0.147046661498455,-0.8942230200842812,-0.23228841740374317,-1.901661863968663,normal
9,11,1.001488812057141,0.008845708071634633,-0.027339557858022497,-2.0411065972102262,6.856448476425899,-0.5853146496745921,normal
9,12,0.987181131067734,0.05729530867219817,0.164619712512336,4.619374484970123,5.969811028047788,0.10069740719226726,normal
9,13,1.0554218578929362,-0.054070957324216753,0.01938755062376657,3.564448176389297,1.0803718924701569,-0.153003719596538,normal
9,14,1.009409548886297,-0.10990515545688245,-0.12282233628937711,-1.2471569750641045,-2.9758868713231466,3.713897471588246,normal
9,15,1.0171158441884762,0.08498829205986776,-0.15531869237219373,-10.081120046562058,1.726608742286166,2.3417868029224778,normal
9,16,0.9135187719913399,-0.030479345093446963,-0.17560806794434436,2.8151011898755103,1.2029354731863884,-2.841357738653081,normal
9,17,1.0150755731145944,0.0393269336572144,-0.001789016845168026,1.0047354639149766,1.6270085160697147,-0.21512810757000037,normal
9,18,0.9203933535270972,-0.022443103770290195,-0.14148841855756933,-0.48011904161385865,3.3172195407960388,8.140042219031205,normal
9,19,1.0300091652322196,-0.17737447240591825,-0.14917520984016167,0.16000395405777101,3.425330023113111,3.328835384888041,normal
10,0,1.0610241128770668,0.012375604949776992,0.024002586292130094,2.359242039800025,0.5091940254317169,-1.8635961295613583,normal
10,1,0.9914282759283733,0.1832048402918926,0.13403908436493392,-2.4094464297518274,-4.632841398524018,1.586246526064314,normal
10,2,0.9749735680882833,-0.037808074008297714,0.07295626362215962,1.6009225561089564,1.2805759278954763,1.8307272434634807,normal
10,3,0.9767966912324383,-0.14846486357273453,-0.07423331729637277,-1.2187285301312503,1.7742614429812722,0.2504911087722762,normal
10,4,1.0540072685421231,0.12122120687420433,-0.14165263331910957,3.951734468855638,2.4333415444041955,4.584726224345675,normal
10,5,1.1134265094148335,-0.03028746918115495,-0.10680434840495603,2.191391678295637,-0.04037896128644212,-2.587513855789852,normal
10,6,1.0977642886488985,0.010782273079427949,-0.14224763720025443,1.6695526306684423,3.0765814994209544,1.5542996175240211,normal
10,7,0.9515300710850746,0.0039398327708115985,-0.10728014213191198,3.4957684985397925,1.3599966266713586,-0.9136797392389222,normal
10,8,0.9918327029478671,0.04440450916094517,0.09623546267886546,3.2239370927593,2.5699863989529685,7.008084024737951,normal
10,9,0.97952155720104,-0.09574960847710372,0.021306578302149895,-0.5601077657731648,-2.6909041362424704,-3.702079099030077,normal
10,10,1.080156865928901,0.08173708761277206,-0.05696154359217446,3.445930884859696,-0.025954394363576005,4.025460140884106,normal
10,11,0.9895795888093023,-0.09283493068290252,-0.12103524317872637,-3.2197471691938433,2.3830190630597388,-3.9928324771206274,normal
10,12,1.003163546992788,-0.0342633451055162,0.19017245143904515,-2.2731929195845244,-3.723034607406589,-0.4064048725046258,normal
10,13,0.9545269052328255,0.030939031599988395,0.10160091121760902,4.615302314175617,2.14639845082335,0.9351731071408651,normal
10,14,1.0213370088413343,-0.17225605590074833,0.10024501980888621,4.961041128553861,-3.4728243725138004,-2.057548224355415,normal
10,15,0.9453410588142733,-0.04158810790122499,0.030411226559058747,-1.3469650145121572,1.1117176068564092,-2.2104904757266084,normal
10,16,1.0701541012011428,-0.15453339962691579,0.14196575997125319,0.36540256732976295,-2.654739845056966,-2.54701495175155,normal
10,17,0.9691159734530909,-0.005101722622637295,-0.07659560362903284,1.2064512928477418,-1.7072700148962738,1.9259713818408843,normal
10,18,1.0249382240902385,-0.04157334784814474,-0.012180367021715896,-0.030595860431871732,7.086038941189964,-1.2195280611982267,normal
10,19,1.060853572763368,-0.2627017627100341,0.026752568595465882,2.282821181237796,-1.874671085832544,-4.817033785814741,normal
11,0,0.9927366706794418,-0.029579971211504304,-0.10081526420987326,-1.044098431389641,-1.8759646592754338,1.0943979128730013,normal
11,1,1.133341443316534,-0.09896852414514135,-0.07117850105623119,1.8351732643072687,4.062422319282163,0.49389153533253893,normal
11,2,0.9822067801450383,-0.1795117280525144,-0.009222954410821025,1.1613227232391035,-3.728083443966998,0.7607464356264378,normal
11,3,0.9989691808097543,0.11501690816852994,-0.0338182186136481,-2.3336868370005712,-0.9377146523013,4.701319331781443,normal
11,4,1.040007484041177,-0.0909290224556379,0.0042054633808208805,-7.437853879996758,3.241385344757105,2.428265745680755,normal
11,5,1.0280112331847435,-0.0791198194770228,-0.06415100888131874,6.008711449722588,-3.5992947620892837,1.713970934934592,normal
11,6,0.9674245990126397,0.0012416994894603652,0.13808237663862075,-1.33921347562223,1.417093142715166,-2.3854786065045146,normal
11,7,0.9439517175531046,-0.05721007722539831,-0.09940066673441353,0.3310079976997117,-3.321297681845546,2.6914178075961765,normal
11,8,0.9441904861012781,0.2085422120761622,0.009961413629364011,-1.2701823252496929,-3.3932778645998063,1.1323010493350645,normal
11,9,0.9952318149270385,0.14285173500644924,0.0002472674869133447,-4.388253518854201,2.2635649186992266,-0.17601206610161557,normal
11,10,0.9859695696880184,-0.14815150924843332,0.195784135227684,3.320604227894683,-1.1502009845849186,-0.32582625368369833,normal
11,11,0.9330539099181177,-0.08946979974884721,0.10099212396809738,-5.224621026606704,-0.9097274055663777,-1.407585965815781,normal
11,12,1.0817612341246547,-0.08504746059509298,0.05286715528195897,-0.7051825572270864,0.6866210875952465,-3.2411253424222934,normal
11,13,1.0171709857480458,-0.1194052104436507,0.2021274107962996,-2.49977400518021,-3.154474254359809,4.132093356432452,normal
11,14,0.9988233512638395,0.0886392247101402,0.07122029336189777,7.027230375077783,1.8452838926299902,-4.999827148369468,normal
11,15,1.03212651777685,-0.1184240675477376,-0.1139834555210056,3.6586867729176826,-3.3955305761186674,-0.9731567314663021,normal
11,16,0.9673723559402675,0.03710211632962051,-0.07862892447803578,5.714700874633241,-1.683759133522661,-1.7748558643581873,normal
11,17,1.0213529145947897,-0.06767723885802028,0.028951752506468104,-1.1281640972308755,-2.6423886853873286,0.844553457237204,normal
11,18,1.1573111321774925,0.09812564500508704,-0.12404070626339969,-0.21068759437419424,-2.905105742226951,3.7411991990153934,normal
11,19,0.9145528343143983,-0.1399908598131301,-0.06608749338075977,-3.8397329458384366,1.8550452553601091,-1.680861623057858,normal
12,0,0.9644036163993589,-0.035801295250143216,0.050937366324053615,-1.7758470377190005,2.8688275056384067,2.4075027108759386,normal
12,1,1.0105177672704726,-0.0314696274043445,-0.03664641585271499,0.12515241361298807,-4.895552091983978,-0.4949794624212017,normal
12,2,1.0477201191722474,0.09300692994302767,-0.12235004134710448,1.5336006387118863,5.176523434505723,6.013835917242359,normal
12,3,1.0056919388698002,0.10642561655252336,-0.06166565065802032,-5.323082244753531,0.8982166636000148,-3.4967295208996134,normal
12,4,0.9761314272444049,-0.18722659937630617,0.08192830989107329,1.8187253959815637,-4.688457928847609,1.7042112629560804,normal
12,5,1.1164850577569259,0.15151570715152185,-0.020614010292718504,0.6026892386991274,-1.8657011648934787,0.9042226533469844,normal
12,6,0.9821111489887241,-0.008903758888588869,-0.10507730962378413,0.9032822072811191,-1.3945572418097796,-1.8463738323560253,normal
12,7,1.0217006956121484,-0.06578461748530934,-0.047431793776205176,0.6267518538085849,4.935605384286228,2.409419786446787,normal
12,8,1.0194642715167128,0.061817419924539374,0.16333929922969304,-0.12090920857278523,-0.9126978226402203,5.436305901034386,normal
12,9,0.9837187349848739,0.0671122107742335,-0.05213824295210426,-3.5188678195759078,-2.8772010687042444,0.31585618667153054,normal
12,10,1.0060476126810391,-0.029445102719384532,-0.22234408872431308,2.354431805119319,4.689951671403701,-4.822852502953204,normal
12,11,0.9179601183126838,0.14927798112103405,0.140864999407925,5.996166275218153,-1.5291109622605004,-1.0246355893870125,normal
12,12,0.9808497717441463,-0.14406202210885907,0.08381382941913429,2.0309491625551024,-4.603004495098396,4.58153813388155,normal
12,13,1.0400855587136864,-0.05978193892954532,-0.10332600472532279,4.08728191618413,-5.035451639316358,3.3726388095493967,normal
12,14,1.0289715598680187,0.05358413881985266,0.03969799809529749,4.135190197133938,0.14307350660811333,-1.3995882780116948,normal
12,15,0.984704099062198,-0.06819930029946171,-0.13165972337316523,3.886289066247402,-1.1968161139402804,-2.7543660027174552,normal
12,16,1.0100506659413355,0.0094972808409243,0.14134399811124063,1.7195458327471682,0.9112933563013201,-2.4903030906805146,normal
12,17,0.9867864848241881,0.001952520265716068,0.0537952043687602,-4.005618586906334,-1.7471377948601496,6.922047696290477,normal
12,18,0.9996615604626677,-0.029587069880582552,-0.05137392084942371,2.516024861337805,-5.7041542789287,0.25229284551007114,normal
12,19,0.9506145285811404,1.9660234823647393e-06,0.00858699268476878,-1.1635022926574954,1.5114873790735348,4.400244186839934,normal
13,0,0.9574256014990993,-0.0034621003968404404,0.04150080304186214,-8.286548944926384,-3.4802720091443513,-6.286055958785227,normal
13,1,1.0057196264590325,0.07659371830646533,-0.09260330223307923,-0.8319102998876327,1.6625324147834717,-3.4363153823665185,normal
13,2,1.0167571038747565,0.11780212298434212,-0.06562947073965039,4.008202652863551,-5.882839707891656,-1.2416144777316402,normal
13,3,1.0099994094085214,-0.09608632374839884,-0.08629055764451055,2.2279021349392214,-0.2650995689091393,0.17160585747900722,normal
13,4,0.9335404150866825,0.026608792490316408,-0.10149221130225988,1.306344050023097,0.5158085189748078,-3.6756062992380416,normal
13,5,0.9361513138979397,0.06871226681727009,0.07792053659464301,-0.5592773153785148,3.05141147467642,-0.4547451636843616,normal
13,6,0.9853477803234301,0.15905927924337906,-0.03316905981624032,2.8694655449112423,-2.9261908468056483,1.6939926691441816,normal
13,7,0.9893223586022398,0.06573838523104275,-0.14780518593526645,-2.6518845292018947,0.6200005841828446,-3.0032219035841345,normal
13,8,0.9417496597449466,0.03329824706164035,-0.0405932663727742,-2.1183991312160986,-0.7688787365772131,1.6258841138262046,normal
13,9,1.0030337282213797,-0.26348547563339997,-0.00535660090486731,4.374521777512582,-2.3355023944111677,-1.5908093573827093,normal
13,10,1.0713904733406219,-0.043410095763249966,0.09817217529272192,1.604874311060477,-2.0434480479708794,2.5000109201737426,normal
13,11,0.9583704666233893,-0.09010382808490608,-0.003981789075821261,-1.3659810008127384,2.1933923627510286,-0.969341528601025,normal
13,12,0.9674667038101776,0.011827727561781421,0.0007181683364704759,4.837775040576705,-0.25576242458797926,2.739138834835564,normal
13,13,1.1001614228376968,0.012501933787496092,-0.11465298416550479,-3.268098633973406,1.0904230524164813,1.956695743717727,normal
13,14,1.034225558185792,-0.01699243555664097,-0.011412276159865885,-3.7176911349294803,4.856651122809801,0.12300781386303106,normal
13,15,0.9811445003305552,0.17391715569994654,0.04550159597426462,-2.6254953340010485,-3.388075819761369,-5.051217787620068,normal
13,16,0.9495630721741812,-0.14510626308427807,0.02167445776887912,3.7873931627709423,0.8820845539651413,2.176201191279412,normal
13,17,0.9872934941655296,0.07011414732656683,-0.12183246437644302,2.8447853343463763,1.9247563172037832,2.586385299834901,normal
13,18,1.0071368218450312,-0.05688349997312653,-0.0007482536380254348,-2.89801480402759,-1.6606664706008902,1.2179477190932777,normal
13,19,0.9120750679977621,0.19460352912092044,-0.024397942055057284,-3.0278083585211197,2.4049053493550536,-2.0846256672059886,normal
14,0,0.960308651057242,-0.26989999304608286,-0.07401672025883431,-0.002744181131056988,-1.0940823131244497,2.3552608291900574,normal
14,1,0.9081004838020375,-0.10659589176433237,0.028276159409905233,3.126841864164569,-2.9018659237026365,-2.066132472873758,normal
14,2,0.9524500357173669,-0.06497113914877578,-0.004408781749836399,2.1239612910469408,-1.3279417945861085,-1.7064864356430727,normal
14,3,1.072619722826117,-0.032801744718957575,-0.01389986867709142,-4.845464555358116,2.5501864379242214,-1.10801358261615,normal
14,4,1.0075029045166382,0.03631482492561924,-0.06058679129696013,2.256147237279891,-6.324437748665627,2.3349470683211484,normal
14,5,0.9372577209766664,-0.10758917017970647,-0.18246090965679113,-2.113319873279898,1.3149808289440386,-1.977715094912655,normal
14,6,1.0769469859044953,-0.06770949945514645,0.13282341090099145,1.2197822566677348,4.876621623614523,1.4806439128395699,normal
14,7,1.0109780260711414,-0.055932179452910916,0.09990345719020115,-3.317403258300236,0.8753321374211303,2.6834529432371745,normal
14,8,0.9903309880930862,-0.0002092723321975528,-0.017768020090347707,-3.140051772597888,1.3230393775779201,2.9976083803470037,normal
14,9,0.9793044405389204,-0.03214827387014804,-0.12623546710165817,2.680938214162844,0.5137708502085055,3.262702405941079,normal
14,10,0.8668627529973015,0.09512272867504958,0.03629810802885052,1.7238939069713881,6.317884452434631,5.430468419059321,normal
14,11,0.9691048187125197,-0.04823831087527705,0.15929858155351084,2.1245902890000528,0.5120558017416943,-3.1605107438339797,normal
14,12,0.9197401479036991,-0.18251510300138846,0.04264742510989562,-3.633458877244314,1.6441161649054665,-0.9036799461574209,normal
14,13,0.9648307639841636,0.1484342726756305,0.13259707091400574,-0.7738653629140829,-0.5008758547351861,3.396146477434736,normal
14,14,0.9137125984598233,-0.05623413912123446,-0.10537210822958748,-4.9918911188596,-3.5286250025797807,3.667044194530394,normal
14,15,0.9311888740936195,0.009306253317517216,0.1692907294670661,-0.8868151891768715,-5.110641960581688,-2.0656748171993193,normal
14,16,1.0428799547034475,-0.09291418634148478,-0.11565462602493815,1.670382537436423,0.15243223900520547,-2.2224347585205093,normal
14,17,1.0005867313467753,-0.1284051645909472,-0.05159724685904278,-1.0126105931240246,1.6368134630042332,5.609204460513888,normal
14,18,0.8744606356239039,0.04997111508986393,0.10201691084425109,2.8196959577380563,-3.8054249242621676,5.043795770089027,normal
14,19,0.9640997131630148,-0.041825284343488145,-0.004135263302965426,-0.3261093563437289,3.534159837872824,-5.547705038378219,normal
15,0,0.9605492300207794,-0.12253470047346873,-0.08640969683660633,-2.4831443726782227,-5.729421708070318,-0.39012876546343345,normal
15,1,1.0676348135901885,-0.12443535238270453,-0.10870430066129587,2.8528155668555875,0.5087576176902223,-5.199570211553265,normal
15,2,0.9131773053831291,0.0018794114984091326,-0.06886688494425286,-3.582823566352729,2.402778557911439,-1.3480753615399352,normal
15,3,0.9355796870842364,-0.09458954396509432,0.07173235976790347,0.5120383850108416,-1.3525676774877946,-2.405344062421465,normal
15,4,0.9689597581008126,0.15773033692161068,-0.0908973249401824,-0.06567649810973929,1.8640509412686628,-1.2580988640975854,normal
15,5,0.9339081339396805,0.033493886746743785,-0.11093097222340483,2.489990954773792,-0.8616929502326842,1.5772601257927343,normal
15,6,0.9896565364972185,0.13309462728344437,-0.14079839820623116,1.84071507146168,-0.18831851476914907,-1.704541532456921,normal
15,7,1.019993747536358,0.051391633459150626,0.12428927901433025,-0.474322436779428,-6.631173918417114,0.08591710930814311,normal
15,8,1.013627417597914,0.09592287020642004,-0.03388800190356729,4.886053681440363,-5.056974822177629,-1.1008732100587746,normal
15,9,1.009572543488089,-0.11983174789437741,0.16343913375018201,-6.096063259327204,2.942687828971663,0.36959629475726447,normal
15,10,1.0138709175464389,0.038158504637993855,-0.2521119188403732,-3.4288026014552226,1.6468466732636537,0.26826406406898806,normal
15,11,0.9716064468988713,-0.018059538995453983,-0.06350812405167261,0.6548704126514848,2.0709256749279943,0.7434408650367268,normal
15,12,0.9605318347366611,-0.033373581553938866,-0.2681053388276593,3.025351618381392,-1.5585224167859864,5.673230338143473,normal
15,13,0.9926891014986987,0.19430645432637983,-0.036340486455608584,-0.1294154413236138,0.5020418200178108,-0.37107218004740733,normal
15,14,0.9787576599962325,0.13890053836010394,-0.17519762774755246,4.6679965449711505,2.164868477795513,-0.3964327536512261,normal
15,15,1.0725521487882,-0.08052602665568287,0.07086687630902735,2.324158648906735,-0.9757047668314989,-2.50470143520982,normal
15,16,0.9659437379068924,0.06362085747235802,0.13105614029049736,-5.6497485919663255,1.6138296330566466,-0.6121653231952782,normal
15,17,0.9601593251400019,0.030308752214862723,-0.01836406521241626,-4.955013178838525,0.10503208546771109,-4.867759794048993,normal
15,18,1.0534203435931162,-0.00959307118518357,0.10137974757946994,-2.8888025563066204,-1.5001134631126187,-1.2786823819817204,normal
15,19,1.0392432765612962,-0.07955962230801696,-0.17528804255462357,6.733176636844274,-3.132608967108517,3.5395442715828205,normal
16,0,0.9743926174571814,0.03508875956094467,-0.11360679710104744,1.198033631738483,1.6819033865464936,-1.1153978408050038,normal
16,1,1.0056078300456364,0.13736626096861648,-0.020354727224203756,1.529312151224409,0.44243596555912235,-2.432200895868868,normal
16,2,0.9893345012948916,-0.05831951836597137,0.2751283414676234,-2.156162146106504,3.1776477972958603,-2.4517775484304716,normal
16,3,1.0054784886431682,-0.01331502286599947,0.16031609260101023,3.028951567580915,4.838414454597398,-0.4717606721088072,normal
16,4,0.986148198628795,0.13476566251347852,0.06944955230373281,-0.24215125577455043,-2.383923809070922,-2.9170925029699646,normal
16,5,0.9710104618879689,-0.0981436920219754,0.06901319339809828,0.8456756651412991,-0.5493196599323926,-5.404012390472248,normal
16,6,0.9709682449511902,0.007112224136607847,0.06025937751461699,2.8551365595741007,-1.2788094667373926,-6.182550771019928,normal
16,7,0.9814809877169737,0.0023730466681637493,0.079808103466126,-0.993982882820418,3.4420900778876033,-3.784904556704338,normal
16,8,1.0908888486239283,0.06432465928971018,-0.0491622202372756,1.799979225149256,-4.93183178841275,1.9591394256599042,normal
16,9,1.0616182068098068,-0.04735936730773631,-0.21219870728319226,0.37651880485936273,3.2000301849038904,-0.04304750200337386,normal
16,10,0.9884697538645933,-0.08524932838294563,-0.19659957493172642,-1.5174373188651873,7.193744922096679,0.2366749619336444,normal
16,11,0.9770147212048853,-0.14741959573060417,0.0066748815971860624,-0.523760780388679,0.6996894255978487,2.653510242666849,normal
16,12,1.0143795538551055,-0.05499884680245362,0.061939037603449244,-2.3328588500614034,4.957898836189908,1.471818183534169,normal
16,13,0.9684533693962943,-0.07852942704020356,-0.041761804750812655,-2.8570325111460555,4.622541133654032,-1.2149522431243085,normal
16,14,1.0089707744097678,0.01802956885031923,-0.05203875177609625,2.704749794507552,3.107170337497349,0.6522317864923785,normal
16,15,0.9642647341276431,0.007441107039851154,-0.029546087934479492,-2.291496761120375,-8.230774829765242,7.324735697962561,normal
16,16,0.9661361722740452,0.18254379081012617,-0.015241555286063906,3.476515081260068,2.0843892915732027,-2.1429944016466513,normal
16,17,0.9771061281304294,-0.06802394735288934,-0.10136178591929207,5.80393049319155,-2.301491134990279,0.03851299225682184,normal
16,18,0.9076254123728084,-0.11213226976504703,0.07137722541244432,1.258963122914972,1.3491177295135814,0.5365557421325513,normal
16,19,0.9223579238189915,0.1759637770571178,-0.058306352864772405,2.3031260772258966,5.025219953601158,1.4066668948397636,normal
17,0,1.0500981661253426,-0.06981992394955643,-0.011020682799059468,-0.37731571012903226,2.1635207050284935,2.414407788371895,normal
17,1,1.064912587982188,0.18252665170453702,-0.19673997435016202,0.4539741422828953,-2.1720925220896086,7.047054219889066,normal
17,2,1.0010489712516673,-0.06697563387844972,0.028132773792835006,-4.63241290553378,-4.184587704428576,-1.9040736283632755,normal
17,3,1.0551581372791126,0.05377601238126174,0.0881147456709706,3.2121175841612786,-4.0177992258438,-4.995425258998943,normal
17,4,0.9387998965095384,-0.03190550079782353,-0.18540046865854876,2.942966332676255,-0.41717099711015104,2.6011395064275353,normal
17,5,1.0453227761116264,0.043854322177249966,0.031666521796934625,-1.905741801454393,-0.33954785974571555,-0.6488771832904838,normal
17,6,1.0299477529006456,-0.0047623820210557135,0.040988225061747346,-0.858296463522294,2.0245554120809732,1.277220950841547,normal
17,7,0.8744909706440395,0.0999810479433394,0.05356833937333665,1.3641624925871763,-1.7375374301166495,0.7680043464242399,normal
17,8,0.9478018333121364,-0.009951395079261459,-0.0581389325674225,-3.9654295331165628,-3.1628043575627487,0.6670903613545971,normal
17,9,1.0401009715757188,0.02443996341269373,0.031673740627946104,-2.5978577735259742,2.8848134641809957,5.152261603109747,normal
17,10,1.0126587446289825,-0.06624631900189958,-0.05639201120672576,1.9765674066325551,-3.054110737038778,-1.1771422143175374,normal
17,11,1.0522374516028021,-0.08556722940941697,0.09970222320543252,1.7159673466618295,-2.888259181190816,2.7618940753905874,normal
17,12,0.9558352746547808,0.0912606685217004,0.06903822351061281,-2.1672813175441803,3.423215704536045,1.6626426633332474,normal
17,13,0.9782466632304717,0.019837177483434956,-0.07565923604017172,1.667287123164963,3.8937902009055794,-0.23282713124095877,normal
17,14,0.9875437036004792,-0.0549820976321769,0.01991054237278697,-0.6191295175529782,-0.5507534564195817,6.480334278496342,normal
17,15,0.9925521776171324,0.017951753483960966,0.0032917404312901564,8.784123046779005,-1.9669946310945943,-2.64335475510234,normal
17,16,1.029747662314496,-0.055989755129481025,-0.1397565810717283,2.812224893614873,5.276137243582405,2.0090784699143662,normal
17,17,0.9905632421732046,0.0877867339972585,0.007581836815630079,-2.0169030540722406,-2.4378017626708584,2.1856020824047073,normal
17,18,0.9953632533304884,-0.0532965881658404,-0.08585299233807055,-2.1269570756058576,5.174816716791461,5.015479366722044,normal
17,19,0.9318821877360659,0.1457290879305669,-0.0238784635853736,-1.589369139608915,2.7500838068464075,-1.5307691293299093,normal
18,0,0.9817457292040331,0.049986463358144745,-0.061364346124989956,-0.3590533111332453,2.570443195821784,-2.566076723272937,normal
18,1,0.9453513306959849,-0.19311479186005098,0.11719809494697038,1.7245028404205702,-5.217486705155259,1.302283752869716,normal
18,2,1.0526072164299514,-0.04906575329062099,0.22316378673513057,-1.690986386772196,0.3767966949439364,-3.163447946032922,normal
18,3,1.0151911114275354,0.16409067981709724,-0.029261965444360317,-0.3816408342920339,2.34425315583708,0.3367715406396376,normal
18,4,1.0839689787517655,-0.05803250975656302,-0.022005199504938313,2.1528227758393133,2.9799717584147403,-0.6556098556390957,normal
18,5,0.9404995848316383,-0.013322651646528204,0.149942743031224,-1.4117491351064813,1.7262315830828334,1.8645067971994997,normal
18,6,1.0105473873347006,-0.06404462730389421,0.07358987873654234,-0.04985811550342589,-7.384836803655828,-1.3093271835212148,normal
18,7,0.9901123122169397,-0.099174445078307,-0.06178271320917625,3.271896165815428,-4.65983346252343,1.3095120507030933,normal
18,8,1.0113391141158168,-0.02399445519615547,-0.06382919207620373,-7.869308780804133,-0.21537987971215938,-1.0317191381129804,normal
18,9,0.9948377655306954,-0.1083428847692002,-0.00757623665731933,-2.850988744813036,-2.9398835409049866,-0.39120888755288563,normal
18,10,1.0121315041945065,-0.11021580192297019,0.14174285997204852,-5.4229271534245305,0.6180207886933174,0.2080228119506134,normal
18,11,1.03351400403669,-0.03011185173692243,-0.16047286064849506,-3.6218176758579474,0.28000424853482025,6.170168543816543,normal
18,12,1.0023572452621652,-0.05196799196646582,-0.2756106488899617,-3.424569091069827,2.213088355886792,-1.5327206510209628,normal
18,13,0.9838356693609527,-0.05343288202083142,-0.04915231888425367,1.9808303994284508,2.0390752691894223,-2.3908571432810275,normal
18,14,0.8970321632876107,0.05874204724609822,-0.040382631942244326,0.8231287007807755,-7.549884218012037,0.16705387463275456,normal
18,15,1.1229186518214593,-0.039462693718432994,0.04852245687168197,4.268390271662343,0.35083276265540986,1.8214415996145967,normal
18,16,1.0101171627085055,0.025390245659990762,-0.2162786737154924,-0.4550220140436243,2.3999162036218555,2.4903133376989546,normal
18,17,1.0414229610175545,-0.10954989819739135,-0.15274139810030643,-0.983673442684124,-0.5719103723008061,-6.812108912961139,normal
18,18,1.0683772529774067,0.04703823869573916,-0.01568046484384248,-4.3686546060637195,5.937818503687881,1.9958093608572924,normal
18,19,1.0134834974035911,0.09968458597173248,0.07965784654419239,-4.372297524556444,1.5605411357266261,-2.4908010941121157,normal
19,0,0.9717720761707744,-0.05376396652343647,-0.006008269043148499,-1.8152131345470095,-6.283018679245496,2.052873071869516,normal
19,1,0.9241545294033859,0.01531004216518234,-0.05277836025365599,-2.4797370784747574,0.08123315034572906,3.6486828879707334,normal
19,2,0.8999767307462937,0.1571586972106055,0.12265319239138313,-1.321271731429043,7.464724149310298,2.705804948624742,normal
19,3,0.9817341863969727,0.05286040817411887,-0.07704257445096623,-1.5422945421085381,-5.586093301218389,-0.0018987823856715866,normal
19,4,0.9824136199746053,-0.04596267916428716,0.021652364336212444,-6.4681937502062805,-6.717389490431549,4.416630059122197,normal
19,5,0.9207316901193434,-0.027667842387609137,0.11171009212080457,-6.335892745782775,-0.11371640234177724,-3.9968950407498935,normal
19,6,0.9490615089262956,-0.154408076872999,0.09560012523728917,-2.196689858107444,8.431261377945948,4.899101912699174,normal
19,7,1.004618488852686,-0.12028086569408757,0.06938190721218324,-4.537204839865099,5.007302964988354,-3.446032415439618,normal
19,8,0.9476059070456497,0.12015652146818612,-0.0134986784016346,-0.27791824918567776,-3.6602020409468246,6.59480486052847,normal
19,9,1.0725370793164077,-0.021893065753726387,0.01944999768944726,2.9826943598977533,-4.975766253258165,-0.7357254524552352,normal
19,10,1.0495865551220334,0.026688425871021295,-0.14780943700130017,-0.8924421472236503,-1.0403404392677984,-1.9472675272082312,normal
19,11,0.9477585946351649,0.07610390819596344,0.062481066768947206,2.702285022488266,5.8357773401016235,4.537071042450602,normal
19,12,0.9967978395900534,-0.04965086519389622,-0.035654435650603715,-1.0706983106811854,-1.480063861482183,0.9769185638859281,normal
19,13,1.030790406298693,-0.12708098119575398,0.07114687020765163,-2.830034190826578,3.5836754951200525,4.17730768371426,normal
19,14,1.0001078583372212,0.03770084433811998,-0.034612241680807974,-2.124485314774508,-1.09032720806835,0.017229465927747042,normal
19,15,1.0360339703318133,0.04172393766110996,0.0427497729666458,-2.834707033336797,-0.06804634870088547,5.1585484657580585,normal
19,16,0.9193414195693275,0.06684059114930894,0.06826590184018218,0.7825570176817453,4.438938572841767,1.224086837702228,normal
19,17,1.2030440600492358,0.004616589634450038,-0.16741972344818662,-1.7458520565810125,-0.16517527742778126,3.5123948257463966,normal
19,18,1.0277527737949304,0.009944209066269867,-0.03339246132295659,-1.808522781091419,-1.990449895361997,1.5960449412418853,normal
19,19,0.8917326172836763,-0.1998126615191201,-0.1405393071062816,3.9972622665763184,0.0020868960923056067,5.265655869532135,normal
20,0,0.939849547264342,0.14760510632135726,-0.11029167895131951,-2.137032857526837,-3.001984518234177,-1.0580877706259622,normal
20,1,1.012697049581471,0.012026096699552286,0.13183837928638176,1.6748801230943,2.6733933137704753,1.9585964742713506,normal
20,2,1.0462758313468974,0.14718171558162038,-0.09134918084895527,2.955661015211786,-4.819963677640586,-0.7619703515402325,normal
20,3,0.950903797879133,-0.05467771587120072,0.027146098304899852,0.38803401117611824,-0.13215235227029437,3.103492284760936,normal
20,4,1.0812794663461198,0.04075165061095513,-0.06559078584374747,5.454592988228374,-0.917677015652695,6.590384782940902,normal
20,5,0.999664754482548,0.10904767598375918,-0.2423319129194219,-2.381552976239723,3.4694029515483917,-3.1828489355064207,normal
20,6,0.9763869979117834,-0.012303224388157046,-0.004605990398564372,4.005058440662346,1.6089636129566929,1.3516647965067432,normal
20,7,0.9540754158382022,0.03402754733603657,0.11396189114523597,3.8005662048803313,1.500383064052504,1.5863170568093272,normal
20,8,1.0749310588538317,0.11428650691058538,0.05347739720110618,0.025819962850043454,3.3656615527559413,2.603090150544756,normal
20,9,0.9161051388985111,-0.04194001184773872,0.03125241077479425,0.8928536174137028,1.830813823634929,-3.692383371698003,normal
20,10,0.8953751652209284,0.005052249591204237,-0.10257162826384465,-2.333538821016655,4.540538859729434,2.816915085314448,normal
20,11,1.0423656079391252,-0.08099599399905794,0.09238064422531966,2.0407562910957644,1.5369650200527443,2.5230467572903947,normal
20,12,1.08617869728518,0.08991579051557723,0.10473694298888905,4.175251789838125,-2.96992391857737,3.125839043742743,normal
20,13,1.0241154874221752,-0.07450717631089697,-0.12604006160947245,0.7489223864159653,1.381003224392392,-1.0279316714823303,normal
20,14,0.9417646284726591,-0.03928601156637489,-0.14143051700835244,-3.709840505038008,-6.2552433785210635,1.6819747923652293,normal
20,15,0.9518359996361767,0.14893656641428707,0.0354471815641807,2.5316290883956274,-0.9733491003673833,-1.6453571108325258,normal
20,16,1.102780201686076,0.0775182312212617,-0.06346873509317297,2.0001562285230583,-6.06971990531731,0.13634681491799389,normal
20,17,1.0868114096912644,-0.09083434296241519,-0.08362726697124444,0.5682811525145076,0.3645617251165521,-5.4391275045133565,normal
20,18,0.9997040989434626,-0.07481457664346673,-0.06658566564419247,0.4535271520775135,-0.6122461896080933,7.235739159529585,normal
20,19,0.9997273036329393,-0.008346086494655245,-0.2713766835224542,-10.757797575948995,3.255136848167173,2.41980841489987,normal
21,0,1.010942900151908,0.16426926150903046,-0.13808273608284494,3.2801492071246745,-0.5942516232392363,2.6375280404916785,normal
21,1,0.9415028372137283,-0.008470186011195353,-0.01904349723865001,3.381521826317057,-3.5382195219095225,-1.6024483978054525,normal
21,2,0.9098202958843268,-0.13416990193400855,-0.011235176744028762,-2.115988153303689,-0.3656274633551262,2.981652090032564,normal
21,3,1.0184422515409104,-0.021187899764607287,0.21183105580359354,-1.0248842775081997,0.7155003774528298,1.7427827291684523,normal
21,4,0.965305303686428,-0.09935134317881456,-0.09401897308880104,-1.1792878047261661,4.408165271936529,-1.329042140778789,normal
21,5,1.0337919322670608,0.15414650492002635,-0.025273602011620617,-0.6947836795781192,-0.08700069791821481,-2.4061390515459866,normal
21,6,0.9958377397633094,-0.07528147740669688,-0.048000388628133994,-0.3006597449288808,1.1875505553914594,4.400593152631796,normal
21,7,0.99931671453071,0.019919890507631207,-0.042715585010574895,-4.935754301838872,-2.683292004137858,0.9778127912710153,normal
21,8,0.9173091241590817,-0.17068882649470127,-0.029911415429295818,4.201863757207864,2.568200965194715,4.300944978946506,normal
21,9,0.9823582382312454,-0.1502390433993892,-0.016792329057320202,-0.03584035080318145,-2.467394483460781,-1.1832682689995095,normal
21,10,0.8814853107065941,0.07221164225701822,0.06601815046816532,-3.0498004322814314,9.233573183480011,5.120045705434724,normal
21,11,0.9568674873487867,0.055763952793074306,-0.117983701143512,1.6289456289913828,-4.469068315752036,1.9004781869016136,normal
21,12,0.9666722824657861,-0.1354367000007617,-0.03552780070938831,-0.9278543464212233,5.498298612824415,3.179494700250708,normal
21,13,1.0240666245679433,-0.007859122837601247,-0.043919057154635927,0.6278320533867445,-0.7891234985428282,3.6116854150961304,normal
21,14,0.9952714668758723,-0.06105105783819939,-0.03934970666663511,1.041543087030287,1.6033670153037989,-7.059039682962997,normal
21,15,0.9485109167304268,0.07316916512428344,-0.03697474699192912,-3.1530258172499424,1.5061531886775763,-2.552130372417159,normal
21,16,0.9877474390589465,0.0594862650299704,0.014273537042888536,0.49641711798009913,-2.787089658301772,-0.937361751208486,normal
21,17,0.9667845155096304,0.03977971618223643,0.21367866357068965,1.3456614429045024,0.03602845514042933,-2.22231798016366,normal
21,18,0.9652150736443641,0.039681357929897305,-0.0699779442589668,1.462803603239775,3.8097468533535097,0.0973802616452503,normal
21,19,0.9731553381791205,0.0818760564707463,0.12792772892194423,5.546134620135736,-1.8798073141050486,3.8757756450017427,normal
22,0,0.9992474666714408,-0.08614547111321144,-0.1343209822126382,0.028618769932666523,0.3318135779359572,-1.67106342712412,normal
22,1,0.9031675172041228,-0.03349940935976946,0.022304712078389986,-6.259088826574143,4.195870394227098,-0.009545574717550796,normal
22,2,0.9874465522414785,0.03828821020618959,-0.024883644851076744,-6.683315630081129,-1.5862802579860749,0.2681606902526956,normal
22,3,1.0477408765464395,0.1757856922504638,0.028535015109729157,1.093911579750888,-0.0007482216157439275,3.361627627130817,normal
22,4,0.9438626572227066,-0.13348542124991164,-0.07488060356718983,-2.0406085012131894,-1.868196583962113,-0.9528577903432864,normal
22,5,1.0386156679594865,-0.045853296566258556,-0.023392976780207284,1.1689372004613032,-1.215393659795054,-0.5543177631517912,normal
22,6,0.9856831392549646,0.08792293638547034,-0.03655618467509039,-1.5333948254560783,-3.4429369139728365,3.339909635191967,normal
22,7,1.0336771338393405,-0.178904486728152,-0.09968984683841901,4.623480290636067,-0.013009371293823353,-0.7962456514279987,normal
22,8,0.9803221185631161,-0.08048135058492711,0.04557043030598167,-0.75948131070127,3.69070103914514,3.0704049116342578,normal
22,9,1.0044569987957963,-0.007692070076222602,0.023331319203965157,2.0453130152095707,0.35054640842276213,7.70510072127572,normal
22,10,1.0267590017358041,-0.03962195345393546,0.127107325430955,-1.6954711423765656,-4.948676802461465,2.244746018455735,normal
22,11,0.9011794073009436,-0.05259256096389894,-0.11433780529059466,1.9249031988372816,1.8897661522855627,0.15593854911003388,normal
22,12,0.9165719743000103,0.17367075091938045,-0.015894699743652953,1.5899358401199342,2.40370498075897,-1.3769223084684805,normal
22,13,0.9864700308418201,0.044194121858601214,-0.14719859668091878,-1.1934530500561773,2.2977463697120672,1.082293214820582,normal
22,14,1.1490400473871762,0.06815026995818563,0.0912916616349061,5.093078337767348,-0.5628722511593619,-0.38145543719863684,normal
22,15,1.0487274656381114,0.10776773117760118,0.062049396340768,-2.0548333836540844,2.043109577394203,0.15901578560728968,normal
22,16,1.0250109625587098,-0.09735547445177417,0.06001083967133785,-0.9906677166641819,-3.315226458868773,-1.081344899678711,normal
22,17,1.0559824954486217,-0.17628005493452437,-0.14432380532126798,-5.071532195658499,2.0279744073431596,-5.66061742825409,normal
22,18,1.0181429245811142,-0.08200507675079914,-0.0684048857862597,-0.9406642165408934,-0.3113460414196581,-2.1624709268494606,normal
22,19,0.9705283376850121,-0.04387186714058879,-0.051584163910954973,-0.3299289334213329,-1.3367723917075343,1.2729806820748564,normal
23,0,1.100132741599306,-0.13212030657942742,-0.00010561984155240115,-0.0339711286678876,1.9369611173819208,-2.8015876817098375,normal
23,1,1.0169202210584856,-0.06814877065243982,0.056666690554714544,-0.13910742218623978,5.6314026607742695,0.3551745264379779,normal
23,2,1.0544722296861238,-0.050425828541486944,-0.04457445986333015,1.0210747775809268,1.8283389462698436,0.38854765789392565,normal
23,3,0.8770966216579419,0.02732803455941136,-0.10366475350833032,2.179994822538502,1.4200878479239052,0.370860622940761,normal
23,4,1.0016875746765848,0.022486199473105112,0.03595174984050354,-4.4850391092777695,1.3154805960974405,-5.366371082689957,normal
23,5,1.0221038023975162,0.03644582899338785,0.16850557463696136,-0.4115779375219919,2.751405713758544,3.2405570236561005,normal
23,6,1.0836478539631655,0.14795946817069527,0.09893611632070268,0.008088068319385551,-1.4883267170419847,-0.8143926785591837,normal
23,7,0.9607330901134732,-0.13490189807726846,-0.052093993908829385,-0.437581410238304,-0.9071442888705594,1.093374301634751,normal
23,8,1.0082645717396002,-0.2587182475711724,-0.0019990280670782114,6.329595693246519,4.895443843649595,1.16007901797668,normal
23,9,1.0195321195461915,0.020857904525274737,-0.1233861634072389,1.8458298962400694,-0.4223224234746268,-2.64872808670321,normal
23,10,0.9756495456850871,0.0006738036768856064,-0.07767909653276751,-9.371936531793535,0.9462579803373781,1.9896631276892185,normal
23,11,1.0510972607658362,0.050158909892923015,-0.16317400204018714,1.2181453620622842,0.6140539843018976,-2.902714756276659,normal
23,12,1.02641979534526,-0.030173226477197102,0.06412099687771497,2.4444550349584153,-2.3049494232068906,-0.029796459595338512,normal
23,13,1.04554917578365,-0.16295030349189651,0.17214059482474678,-0.5605057486817673,4.205420379727389,-2.7101694948142847,normal
23,14,0.9751739180104793,0.031027313235556395,0.10679940296107103,-1.9207121033751475,1.9380228420643455,-3.243508947125622,normal
23,15,1.0463921747297236,0.011742054506869123,-0.15648848749557312,1.398667176742572,-1.1430146619695105,-1.5958548406711062,normal
23,16,0.9503007529343361,-0.013932874353559364,-0.06616239957418504,-1.7400570942921316,-0.3935640906154516,1.294139586629245,normal
23,17,0.9717345860125718,0.08330939427868961,-0.09043492180210354,-2.0603409335037646,-2.3518289890987267,2.8454775156704075,normal
23,18,1.0030898454532073,0.05319976901349978,0.047173483224441176,1.6504627663890226,2.1605329383498764,-4.820275972201723,normal
23,19,0.8860201355462582,-0.053323359148860966,-0.029280070711097707,3.986149182834847,-1.1150039264270832,0.02889078889805221,normal
24,0,0.9963753596758717,0.1494929758188673,-0.16920347208360478,-4.001787237990444,3.3930941557213923,-1.9702920216252127,normal
24,1,1.1077710069340199,-0.04351236999828973,0.14278323833888576,0.49510089263708057,2.1782492477168676,3.28602946306669,normal
24,2,0.9974137696414086,-0.03788830031064617,0.21319808859658718,3.1661771746928253,4.059103415793732,-0.4076022945787001,normal
24,3,0.9879377123895061,-0.1184755166123604,0.1125083089524728,2.5654426899748835,0.48983966534220735,-4.616044157214041,normal
24,4,1.0760852328787274,-0.09837440431952993,0.003858997694055243,-0.6067529660335962,-5.186753272456329,4.436410473397968,normal
24,5,0.9762931151168874,0.05600871715245346,0.15727648212141357,0.19058331486748528,-1.1823736700475775,6.104595641994511,normal
24,6,0.9820291054623328,0.04631973469535397,0.0635450300267184,6.137118809432436,-0.3018311391016011,2.038674882695583,normal
24,7,1.0726912295191358,-0.07126004264913817,0.03384414149258148,-5.019664848147217,1.875005783297425,2.253921144276809,normal
24,8,1.0472822030616575,-0.060042462434020394,-0.1978042059864254,0.7686209615129074,0.4633922357993565,-0.8328568349623009,normal
24,9,0.9944528887710636,-0.131915836410115,-0.12231015109926209,-0.9981633360695745,-1.2546285526941923,-1.0952720667748297,normal
24,10,0.9279861257479192,0.08090295486026934,-0.00031378988440693346,-0.5954654138993971,0.6243891507031301,2.095074724063467,normal
24,11,1.0316391548265909,-0.047011186741351386,-0.029888126516627575,-2.9524488631818104,1.4173158863219715,2.2628044684104194,normal
24,12,1.02810717923445,0.055991465674791456,0.12554154942226034,0.30848591101241246,-1.7254829854537759,-1.4392713242126043,normal
24,13,1.0297380239644343,-0.10177229838229743,0.026265926524557143,2.700008683514966,3.393748221448628,5.46907426541638,normal
24,14,1.0791047161258134,0.05448722627004548,-0.11474038471521242,4.171073665538628,5.6135749297903335,-0.31346761694749187,normal
24,15,1.0193011145524404,-0.06877748534247878,0.12181236083975536,3.426765763938338,-1.633754768381229,-6.503804411781094,normal
24,16,0.9624873840958201,0.08102414803273879,-0.044867538654886775,-1.334776986413424,-0.0641710698534531,3.4081693073765438,normal
24,17,0.9867341506833803,0.027218134966954157,0.03839074810385643,0.23841309778202907,6.015151233544637,1.8479728540334943,normal
24,18,1.0125118181837507,-0.021846860329340776,0.10320452220917097,0.9965938314458884,-0.23186228158311095,2.2818069308765727,normal
24,19,0.9962889056766021,-0.0641586545017285,-0.03152382317634021,1.832070784141723,2.515031981285971,3.8154243430485035,normal
25,0,1.0162132758688978,-0.05133605413495808,-0.08488995481703134,-2.6832261128445536,3.1276234292519205,-3.8835725827922105,normal
25,1,0.9569015941907775,0.09862842365116037,-0.011884439281950035,-2.1947995304809385,0.485768540767611,1.104998125918151,normal
25,2,0.94473537444494,-0.2602537388590834,-0.009882588306649833,5.07992106473956,1.126609638686895,-6.261583494884497,normal
25,3,0.9858560090044737,-0.0674310411195193,0.10561258046628536,4.518789305273586,1.571895399404689,1.3622636523701588,normal
25,4,0.9522979038261029,0.042944086362953986,-0.06604179851958572,-6.030166053269159,-1.2707900489560982,-2.955863226353757,normal
25,5,1.0267208396792873,0.0012407301040438525,-0.1474557475993604,-3.5660664484684936,-2.2191468980743037,-3.0058934552465115,normal
25,6,1.016385714486466,-0.12329031357029169,0.08647913393669282,0.28026726073753533,2.5155804170246143,1.0089861973968486,normal
25,7,0.9397110963377151,-0.03571255601396564,-0.033769097616069096,-1.8843913274509054,-1.4442602183378956,-1.0639943263460103,normal
25,8,1.0058379159120792,0.19826163186396537,-0.11569647731883533,0.8279652157877024,4.919686497772643,-2.807719450357763,normal
25,9,0.934200094288351,-0.012574633927608533,0.14032069923850818,-1.485950705880649,8.151743866924164,-1.1827140766829354,normal
25,10,0.9914804336109333,-0.03628991244727472,0.04058074158420648,-8.510357678764459,-2.2735578326602828,6.771677765103028,normal
25,11,1.0074269627794565,-0.0427938211913012,-0.021195983604753048,-0.4497119067256756,-2.5496665560970033,5.700218348187532,normal
25,12,0.9896748752943341,0.06287997711454184,-0.0317085430761986,-3.8051920836529,-0.14457199380762967,-1.535943499799823,normal
25,13,1.0218374293070944,-0.08381249387911893,-0.04938125178400718,0.8026239372272326,1.6398654914602009,-5.085173094254012,normal
25,14,1.064108237121244,0.0004436777662746854,0.03914457786874317,2.5751283989276232,1.8017553809347069,1.3995210978969739,normal
25,15,1.0107972813870232,0.07235617819968775,0.07283123839470597,4.765552878012077,-4.762404120965604,1.3965402222674146,normal
25,16,0.9697054160388036,0.08873483525986742,-0.058792412369240765,3.211088711019619,0.926257514548083,-1.9177255766293522,normal
25,17,0.9939486279956934,-0.05874870079948727,0.08085145180283167,1.4777592080822572,-1.590727078314878,1.5596261178404935,normal
25,18,1.0160406113388358,-0.023058643500509242,-0.04720394223206606,-6.755935671378578,3.055926100674134,4.5539554956089425,normal
25,19,1.0160584116536433,0.15582292133991116,-0.01920351717108995,0.12275538986782691,2.703705136637295,0.9761845675956418,normal
26,0,1.0868060006075664,0.17158158543820812,-0.15972772649613712,2.9579521201086765,-5.813148586293863,-4.088274013926334,normal
26,1,1.011042423566761,0.03153206237046904,-0.036725706874779905,-4.888486658950721,3.6236018850375173,-3.7915231286138336,normal
26,2,1.094694240180787,0.05669204271204462,-0.004345419749215546,2.0879970030787667,1.2015608953634365,0.6730887738836783,normal
26,3,0.9399615393643668,-0.0020767600459468075,0.022258199114708707,-2.990122631726752,-7.0279272204381815,3.080707734932009,normal
26,4,0.95814773551414,-0.014578154370529353,-0.059113134961360975,5.1448117739861186,-1.4064799652145146,-4.7549851902093465,normal
26,5,1.0009711121381935,-0.12686790335595252,0.03447651625150818,3.441415132932536,1.3065409182291448,-0.009857977821066831,normal
26,6,0.9215727856791015,-0.06169781822705658,-0.05383318328793785,1.302281288005827,2.3170920426853394,0.6037193423009102,normal
26,7,0.9856900306406492,-0.13209349250466704,-0.0855087723237752,4.782505353119788,-3.8484591350948154,-0.5714898500672845,normal
26,8,0.9815935793074007,0.15146911201596638,0.16453825389884602,-3.9064544704624398,-2.1881684094293883,-0.6008472030684249,normal
26,9,1.0543312223599886,0.027953135311612327,-0.05862561359470911,5.5438570831717335,6.036036002008988,1.4102454394640391,normal
26,10,0.9997851363013553,0.02168649918735633,-0.07032197341239466,3.5395354965727943,3.8307103598326426,-3.1647290357631737,normal
26,11,0.9925278688565754,-0.1418333268544097,0.06135510763140128,-0.3332687973028013,2.9096494819475667,3.4416119100627496,normal
26,12,0.9673438862713751,0.031482833714866765,-0.06344037719342972,3.4436489404995845,1.2506772286390886,-0.5662981052566557,normal
26,13,0.9785900662973197,-0.10393543444751754,-0.09337265461787359,-0.8287094662987056,-2.3570859208205754,3.7868597400004425,normal
26,14,0.9989365620858377,0.10530372559589787,-0.07594361308181578,-0.4749249381107199,0.5852839965902822,1.8439069902483343,normal
26,15,0.9561708044300028,-0.22251610512947637,-0.08859350551712764,2.5776669198016524,-3.4368540214530827,-0.33311169296461746,normal
26,16,1.0875688918789992,-0.09471956873002038,-0.11280940216031606,-1.3995678903175448,4.409093116334374,-1.6143238338594188,normal
26,17,1.0370079866746529,-0.14983654717718262,-0.03982474902697201,-3.9621684917751843,-6.413848172911005,3.2622511074423572,normal
26,18,1.0595403549229674,-0.01162620237288259,0.08446896872126668,1.8430899913981103,2.1038404041636998,0.1972332337686678,normal
26,19,0.9471305263901675,0.04609736549342796,0.1437790416516591,-3.8140147014573316,0.9588275919406046,3.14679084190176,normal
27,0,0.976291891304727,-0.05349331232632444,0.09185470154183095,0.8300420137983877,0.6089593916385213,1.2154433785636694,normal
27,1,1.0776755000308524,0.11144979334040409,0.09940316039120639,0.1497644516644347,-5.5898949864766285,-0.006872441665446951,normal
27,2,0.9739235995122257,0.011751792409852108,-0.2029094215350857,-3.137228923707906,-0.14283063322722286,-3.0780926294753517,normal
27,3,0.9856766621463994,-0.13671018022838932,0.048556120059961155,2.961451336901063,-0.2600572913474943,-2.0556844685047904,normal
27,4,0.9236507144334667,0.032084395602929826,0.01798973993383302,-1.8839191277360405,-1.9042862039809592,-3.598360544030239,normal
27,5,1.0559095613614833,-0.0516159520476293,0.023029476629738078,-3.728706855134322,1.0504886107302995,2.8162588394941794,normal
27,6,0.9795881048319075,-0.04426990641031406,0.10297368615381297,0.6788926902042854,0.9314838882216687,0.5889049364842395,normal
27,7,0.9112510810539648,-0.021072492864209976,0.1636067970613584,0.07035540753814579,2.3246223717145225,-5.832472306079541,normal
27,8,1.0949979065638842,-0.004841869631252094,-0.021321143834366202,-0.2360999340971976,1.0013997929159806,0.060603506153606115,normal
27,9,0.9395349441525137,-0.11352127512305675,0.11770402978887001,3.0267764650600864,-0.18427425571437078,0.7358765628101086,normal
27,10,1.015294861043362,0.015615572782490856,0.08451011340373987,-2.1325619419656396,-1.1865052090455517,3.5766063187325736,normal
27,11,0.9890168822325558,0.0741636568668766,0.17840402643417258,1.073693395125668,-4.892536515901526,3.753268897802993,normal
27,12,1.0048927248771842,-0.05136696079995373,-0.0896550884215879,2.139480258879575,-2.494845567967021,1.40831867440907,normal
27,13,1.077456324671308,-0.10559929404090665,-0.08402085124705294,4.172631946120842,1.7624032452566403,-0.03691202879463897,normal
27,14,0.9981533414211509,0.08923035025956821,-0.005965229296847412,2.6729014831406372,5.9484854619571355,-3.8290063566134895,normal
27,15,0.9647721161125811,-0.07384223986626981,0.15538303316529467,4.553818514874166,-0.1268179384089933,-2.384406889121283,normal
27,16,0.9599237270114941,-0.14753755889971545,-0.041725358882724384,-3.1711996075115167,-0.8196949534073346,-1.6696080835441793,normal
27,17,1.0345818163148068,0.02671003208122108,0.022854444232194158,-7.209759209877763,-1.223866223698022,3.025219402977855,normal
27,18,1.0275342197547332,-0.041886194553652514,-0.06605276473578897,1.0996998226494767,3.1809164092300506,-2.9742046885673403,normal
27,19,0.95414682005003,-0.2257195509467287,0.0020681030637977383,-2.1636290384484513,-3.9715436444811814,-6.628100729095319,normal
28,0,0.986131821448499,-0.0019581321305014994,0.09853445427015475,0.4720182104194097,3.7526383058884853,1.650927872699961,normal
28,1,0.9903879718370929,0.2905770286320459,-0.12540554609375512,-0.9576331036225846,-0.7220683953211594,2.5444068783172518,normal
28,2,1.0566621671851486,0.1549691249344386,0.16799287906667454,1.4214077189914072,-2.825967561488448,-0.8506316467231081,normal
28,3,0.8826995452630719,-0.08319710716762613,0.0564458217900676,0.8634986511337164,1.6456728035665322,1.907562463011455,normal
28,4,0.9539586640600475,-0.06772891037734767,-0.04774659798593836,7.271170579706544,-1.196460343540556,0.9311124059185756,normal
28,5,1.0290634996563446,-0.036636858344726596,0.07449191466886596,-1.4114964042279383,0.8985833173975759,3.2804504215058983,normal
28,6,0.9125198449761825,0.05446126103075978,-0.04317176954146534,0.7652254620785459,-2.165100231347277,-5.161420006599049,normal
28,7,1.0186006190298915,-0.2573763199166248,-0.07924518028989203,-1.6056649309899407,0.9315874388102314,0.9499801117603508,normal
28,8,0.9640000795852294,-0.03211144422633757,-0.03950726014344369,4.49565117145619,0.8986889778072278,-3.907148637445789,normal
28,9,0.9717341611762027,0.053021520681772655,-0.13459462909657324,-5.084225776596873,-1.8084864383924,-3.4906670087798606,normal
28,10,1.030199331174002,0.010794509880552576,0.08899482738070917,-4.482480556263272,-5.189259268073681,5.612085228935219,normal
28,11,0.952580385192267,0.09210890406324583,-0.050531225846652664,-2.0688765821815784,-2.950173047073781,1.9807715655235036,normal
28,12,0.9924253304018693,0.06398998912198905,-0.0058403281756241555,-4.390620762547099,1.4278348994701986,-3.8686120379846596,normal
28,13,1.0988234055151174,-0.18276195619717092,0.03945869586807838,-1.3915311959165717,-5.3833047690107305,-9.269027847374854,normal
28,14,1.093288964913539,0.041837804656183364,0.10173678780873432,-1.3177395373309468,-1.2672007527813847,2.986589354904428,normal
28,15,1.1415032804210061,-0.03255819495967087,-0.054530374872782006,-6.633020929069991,1.310309865769477,0.8252743435722174,normal
28,16,1.0312330077694483,-0.01949473921481272,-0.003176607698105684,-1.0433020548666907,-1.0234473212550057,1.6941339440482162,normal
28,17,0.9456025505684004,0.03793290157008386,-0.005797026930268172,-1.9037893579513006,1.1000772118442126,-1.0542031882974467,normal
28,18,0.9826413729483767,0.04698783654353563,-0.03297282500899618,-1.1206700789807507,-2.3133036522361228,-0.2562115588264763,normal
28,19,1.0970890938312488,0.044100936424097265,-0.06301577073428152,5.596985478636859,-1.352849202787932,-1.9206983327391383,normal
29,0,1.0148571742910908,0.0469387491202467,0.07472603079187194,-0.18388898495314404,-2.251921614700662,1.3777664742104707,normal
29,1,0.9003471686631139,-0.04766138897141599,0.14881513461963666,2.6685981883225316,-0.7947174947360846,1.9116615108269086,normal
29,2,0.9672576236833514,0.24836757565500608,-0.028124808619588843,-0.44520524287858876,3.8543427761407436,5.14877348111747,normal
29,3,1.040613362873623,-0.1793692143495833,0.060716400414677386,-1.5076179425588538,-4.014781069923188,2.465414572910811,normal
29,4,1.0984708715855043,0.08628911354205261,-0.09680883429145219,0.16601580951441877,3.0944315564191247,-1.661952895261509,normal
29,5,0.9538687505610489,0.015268766703255441,-0.010557112119806263,1.8029970073180008,-3.098512777326137,2.643772128298993,normal
29,6,0.9869740085115096,-0.24110108555468798,0.12457553165239184,0.689437452255316,3.1476076222706464,-0.6517288069482794,normal
29,7,1.0595351762528247,0.07663581409535554,-0.1515846011149885,-2.7502655006267043,1.2119909661488535,2.38996747042744,normal
29,8,1.0200425049883037,0.06794533419336175,0.16178810375768868,-0.7988308426805586,-0.23287787800024112,0.09155211687967285,normal
29,9,0.9307013609164924,0.12820751151336035,-0.10019383411996607,1.5144131251454072,-0.8304921576123375,-3.7833510866162428,normal
29,10,0.9299255304807084,-0.030574090015303312,0.014823693536143386,-5.292989828542816,7.749638980249255,-0.0702030353390011,normal
29,11,1.0924007398324354,-0.07122894617273202,0.05220053129144159,-2.769737503149917,-1.441713734377662,1.491349381049212,normal
29,12,0.9231749008122002,0.00415421914041146,-0.06168185060137003,2.1907700631725104,0.2379501484674531,2.3999465334261316,normal
29,13,1.016566109729651,-0.05176818946059741,0.02672724265368881,0.6271511532945974,2.142210937084056,0.8181076026114014,normal
29,14,0.9955956303018249,0.12268086316375243,-0.07084947923444475,1.5845780063535115,-1.0689806943599471,-1.2681478303756706,normal
29,15,1.0011229381335451,-0.08541012136150063,-0.012802602071099449,-3.421282466713059,2.6486595358315297,1.9417956440068354,normal
29,16,0.9181028135240029,0.04199384079817023,0.1672051476708088,-0.4914253897975097,-1.770438267047452,1.1090086747506338,normal
29,17,0.9938399841240056,0.09673268213491834,0.12005210762633022,-0.9269469262425459,-7.189214954840872,2.184618373731807,normal
29,18,0.9559609453495252,-0.08773869523082697,0.1121848204077338,-1.781267412546795,4.708319836759085,-0.4602918857916419,normal
29,19,1.0264142615260945,-0.18168984643520528,-0.10324936715455613,1.3191438836764227,-5.512389089297338,3.00065737943652,normal
30,0,0.9758523915704823,0.05395282656921932,-0.07122334585850132,3.5898970613493857,-1.0165368738312572,-1.5576324093990945,normal
30,1,1.026412791768547,0.006905920361150501,0.03892069783140241,1.4617136373588304,-9.388274942911412,-0.2518287013070701,normal
30,2,1.0442701323415613,-0.09594365089770224,-0.02218948345021122,1.0327032789304955,3.736467883216455,1.6978695921636433,normal
30,3,0.9949306738241875,0.02334308401634895,0.06531673223884438,1.7202146825210107,-0.8570186838249904,-0.6223505923441546,normal
30,4,0.9800557238273104,0.041921070617690286,-0.13325110346168761,0.7385166933563603,1.3623623726948688,-1.9143841143795282,normal
30,5,1.0019634580430363,-0.03653776992522935,0.11272111296726378,-5.582837049074868,-7.163726262256258,1.32982879277164,normal
30,6,1.058102055253495,0.262611438509429,0.053102190741522,3.8475361912838784,6.274404779602584,-3.435410175825134,normal
30,7,0.9954201446804359,0.053175187602406616,-0.07432014324611191,1.081968050645759,-0.904806004766852,0.28078961037885836,normal
30,8,1.0299943687862692,-0.10672090186689359,0.04773118293279986,2.773341151773466,4.288845008305222,0.6343542174332781,normal
30,9,1.034806716840238,-0.07244033443146289,-0.1909445413395707,4.5139013907761365,-1.4224960619028004,-3.4580965520595317,normal
30,10,1.0129951517385996,0.007554601183898119,0.06792898769979498,6.7323266768660135,-2.964585851599327,-1.0523921896670998,normal
30,11,0.924021354464329,-0.22594026015123048,0.10048813526958965,-5.764099460602869,-0.5957851320082459,-1.4141616099781562,normal
30,12,0.9813501588461876,-0.1173037543371929,-0.06229163353662073,-0.8712541928682087,3.6854671982603193,-2.009728984759037,normal
30,13,1.0672667593549807,0.14730324993343394,0.008273251272010241,2.8451313125410147,-2.977834373220513,0.2873408400220009,normal
30,14,1.0545010275895272,0.014930820583433403,-0.17901786017969126,1.3655489726058212,-4.213322259986011,0.48924961312323956,normal
30,15,1.0073847111411656,0.038002090584775744,0.03707652697679147,7.600050397990598,-0.9732639256874749,2.759974305487678,normal
30,16,1.034798550241565,-0.17878866130514734,-0.018784833616490235,-6.445890583546143,-3.482546492002003,-0.5132415753821005,normal
30,17,0.9244278793145788,-0.15055943273664749,-0.17850338356148976,-2.297718322315962,-1.5036597970500023,2.0235859185732927,normal
30,18,1.0497987955298898,0.07335368160650076,-0.14804255295060256,-2.016823177753954,-2.889891702231077,-3.361985705720504,normal
30,19,0.9645372046701541,-0.06349829527949895,-0.030183594320253672,1.7791849393332348,2.370662684971634,-0.8757758728604024,normal
31,0,0.9862293092221801,-0.2263989086131467,0.07679340491568287,1.7303071160221721,1.115337030166783,-1.2880589544447751,normal
31,1,0.9858794157190348,-0.06141950021212122,0.13107818239503533,3.9564077844127112,-3.5455311922058574,-2.217161781459696,normal
31,2,1.0421412898997526,-0.012284632964357986,0.22385688182179286,-0.1253301074564928,-0.6944929622334216,-1.3276227074917384,normal
31,3,1.1052181761304023,0.000301876216781564,-0.12940834297992518,1.2266832401205012,-0.5050994542526008,-3.9529955886094097,normal
31,4,0.9351803037012733,0.14989017793789128,-0.13568564048935652,3.1935470136053965,1.0249047945883494,-8.051909701889599,normal
31,5,1.0304890559790916,0.011441892947937633,-0.13645398968021913,2.1049152936447415,4.161388946741997,-5.639207200040872,normal
31,6,0.9798969455257605,-0.10662704845063786,-0.21391746764173056,3.416001139675549,4.663485142817051,0.3417879576810925,normal
31,7,0.9978399964305092,-0.011942587720743296,0.04475190608822846,0.9288361272310957,1.0076698104062412,2.563354231677332,normal
31,8,1.0704667186359136,-0.09845620488203387,-0.05052893650970463,5.653453973870657,-2.9371476564359744,2.666055094435602,normal
31,9,0.9755445452703128,-0.11687690977407579,-0.0013404404300981947,-1.897698539114381,1.7823675341089258,3.140058501745049,normal
31,10,1.0279271141821662,-0.16914194385974846,-0.06310861076821093,2.6476947922472087,5.039258559983676,1.5109898437653593,normal
31,11,0.9859538082262143,0.21115298266001778,-0.00379580887216872,-0.07406190223825301,4.57851362528471,-0.3352541219083911,normal
31,12,1.1305764902885782,0.02072875865287216,0.015884430125915925,-2.9577442912582073,2.1226910072262837,-3.3281246529000685,normal
31,13,1.0694627051886578,0.11042166944172466,-0.03996706274082532,0.28740802383647124,2.372149869837149,3.9747149969826845,normal
31,14,0.9840894383256286,-0.09749781653899368,-0.016410477108583354,2.0896319199248765,-0.02181561980328905,-0.25898498438225637,normal
31,15,1.0262536989220812,0.07312752718200194,0.0787655086886256,5.387938690368252,0.624987000194213,-2.6677894028027813,normal
31,16,0.9493118643503804,-0.0596971461152522,-0.06645882033258466,-5.920705532784101,0.3829687498674085,2.631435383099843,normal
31,17,1.0180028052425878,-0.15889092261761245,-0.14042151615229967,3.879644070299621,-3.234932331138788,-5.325911376434809,normal
31,18,1.0846755219672342,-0.04090962413510307,-0.019675441549222787,-0.8727395198163297,-0.0911057320116225,-2.7225084546226643,normal
31,19,1.0244967916771348,0.04148207514247924,-0.10724133802763446,1.8366913316538835,-2.6510083196984895,-1.2012961619210374,normal
32,0,1.020396483963488,-0.0029239419386291677,-0.08511416263808866,-1.8176244684206102,0.9510126335105484,3.012654651420231,normal
32,1,0.9240860488179874,-0.0007023755043490169,-0.14750632328646168,4.3304167067251775,2.0575484869226353,-1.7279741149411136,normal
32,2,0.9553210131300645,-0.09544415440678103,-0.06758578880622788,-4.17064630356858,6.407301216503616,2.4555696682622474,normal
32,3,1.0167999694147243,0.016140573805673016,0.06461378233939952,2.5470755605291453,-2.746581057278345,2.0907593682523933,normal
32,4,1.0026724673591236,0.031926687630823895,-0.003086676266324906,9.665202790738816,1.0663104729745145,-0.8731296522936506,normal
32,5,1.0036169210724175,0.08197257886610684,-0.05133081608643847,-2.0695202282278897,-1.7890072529226875,4.736173236763158,normal
32,6,0.9666990296034007,-0.05875624912977304,-0.010264288945629066,-1.3364913581006197,1.6274687346772594,7.189613592473584,normal
32,7,0.9859300588494678,0.02985792055144501,-0.003294754254577094,6.1736543567605295,-4.557505931131731,-0.6377695488139589,normal
32,8,0.931093393923618,-0.05308925539333209,0.09442184213040092,1.575026086704184,3.0244461885119724,-0.3270186192948551,normal
32,9,1.0818755467505696,0.1307769173615942,0.012064261733904208,-0.8119742691962711,-3.5748724430093315,0.9500866444923777,normal
32,10,0.9653829487834714,-0.08349740747105862,-0.13110881156944007,-1.2225950244442985,-2.772996712985705,-0.08630399648120256,normal
32,11,0.9514690043028626,0.05305005432545277,-0.0397782637942114,-0.02956592443860681,-2.762258465192965,-4.381741754342352,normal
32,12,0.9753063532130238,-0.051486694653129855,0.06367260502903786,-3.1461555832563253,-2.8205823893189197,0.7754386865547606,normal
32,13,0.9436968905302343,0.0535450551129979,0.0321763404117467,-1.3593342219361482,-1.5801577849703439,1.356327568184239,normal
32,14,0.9204350329664711,-0.10562244805661228,0.07409102026222031,4.196694934870843,-7.983196095670765,-1.2805954109269293,normal
32,15,1.0251884579243595,0.08458460457785773,0.02328464644047134,2.616084563243055,-1.386828416763792,2.2720029006516236,normal
32,16,0.9729963691091917,-0.040487134572285886,0.20532621701346832,-3.663047664204276,1.792934175812822,-0.08047576664110244,normal
32,17,0.9832581339291946,-0.08510712848865588,0.10427219337750454,-3.370904281077214,2.1553362325418823,0.44112628521646513,normal
32,18,0.9020452624807309,-0.009950981662623922,-0.07038479558618026,2.6242872596626867,4.890053700113548,-1.1027162622626223,normal
32,19,1.0070032091274748,-0.02389267421458011,-0.04586391744984367,-0.9027602016589749,-3.6983809683011346,-0.1441435309618261,normal
33,0,1.0228694488195975,0.15956127000036693,0.10626986943623185,1.419189254804684,-0.6218666962628279,1.6605915498614494,normal
33,1,1.0587454294303156,-0.01981381807413582,0.029879703999509028,-4.09609697812824,-0.2888647713002593,3.5849629480061216,normal
33,2,0.9906195354504655,0.03910956936851257,-0.020801734649564006,-2.644434377144526,2.678971333381517,0.5228273325411568,normal
33,3,1.043339857138889,0.0380400787046209,-0.10493654418337578,-0.11478477876521438,3.219280287561551,-2.1534776948408467,normal
33,4,1.0621389570495956,-0.06324376160395338,-0.2097304653976421,0.7845657932000809,0.7813805253257988,-0.20209025074191167,normal
33,5,1.0289818565568618,0.09802913618076432,-0.15546675346171748,0.30436785173115893,5.087251863625414,-3.3834339273746568,normal
33,6,1.0495392143563735,0.025074629607119245,0.043961622192305955,1.294557093712842,-3.48920591586012,1.8475988143195285,normal
33,7,1.0330620773511539,0.05407531379355355,-0.04938791116229546,-3.8590611587134322,-3.219936510440564,-1.2358506410195917,normal
33,8,0.9991239808487548,-0.08992923412646542,-0.18567950722644389,2.4756432106905173,2.1806887365260192,6.388677989086908,normal
33,9,1.0502077878664295,0.08427357292812382,0.08719492213202196,-1.5715481848579038,-2.486641172165185,-2.1977673648377567,normal
33,10,1.0496716668572355,0.09110547156861123,0.05401662067435168,-4.821911364033129,-1.4655880916582054,-5.9231979615219155,normal
33,11,0.9538331404158856,0.033441103087140725,-0.03780416202462719,-4.002803631623753,0.7447378245242787,1.3917115208471713,normal
33,12,0.9969245306453653,-0.07637059212606043,0.006770004278536821,1.7035955885451148,1.0489468729455016,1.3744990511271131,normal
33,13,1.0272570643278511,0.034395367602939486,-0.012391722921518349,4.264681282620216,-0.1917977900231544,-1.4059107217700348,normal
33,14,0.985599320042179,0.03868120048768065,-0.06605848546737576,-2.204598556248608,5.623607720711379,0.7036142675350823,normal
33,15,0.9336119939355976,-0.1411103822288471,0.10116657115773249,0.3655887919233362,-0.6491160930744233,-3.998371039659818,normal
33,16,1.0204624899023604,-0.10957071232495566,0.009540677177541276,3.8771414924942604,2.5363779836123843,-3.2099558917237814,normal
33,17,0.9939484340990004,0.002396152279763842,0.1481545668322221,-3.067324741757914,2.3142754240213916,-3.526946057972781,normal
33,18,1.0067280719617124,0.03687740600335671,-0.06374897298771687,9.069774036816165,2.3255726215637793,0.9241591207128285,normal
33,19,1.0259456409725365,0.11640132610513465,-0.08370186187905987,-3.4536822937684377,-0.35895342658556884,3.476639578296581,normal
34,0,0.923670907278027,-0.04705393028517194,0.0047978115260114106,2.299312812854051,4.180584614231435,-0.496487402812695,normal
34,1,1.0146289851457007,0.08618479506065523,-0.045599231859553974,-2.8047272074514504,-5.545348106847376,-2.289097336163727,normal
34,2,1.0656371338489394,-0.1483865696424955,-0.06558567396740238,0.9643611648400918,-1.0838535884757146,-0.6090272296192648,normal
34,3,1.015972508872042,0.08274902996112671,0.017010148164179836,2.6726098421661177,0.9348673167217534,3.0289876450135576,normal
34,4,1.0938400197946478,0.10399996048935407,-0.03263700715299272,-1.4387202696468104,-1.218388694854799,2.642296310837945,normal
34,5,1.0574296738876567,-0.05270888015016868,-0.06524409092415433,-1.793651302421992,-3.6396949426766216,2.581001031490489,normal
34,6,1.0740554497734236,-0.0032143185767462903,0.07744525907924771,-1.868030366891503,3.0408143417728883,0.5108562816341623,normal
34,7,0.9336583371670688,0.22203244740616093,-0.16332986483107756,2.1531261601001117,-2.849086985118827,2.2025911615038325,normal
34,8,1.0530707208077132,0.03454384167259793,0.26643827022095246,0.4400105719395222,-0.4410254329059806,1.0131457049638328,normal
34,9,1.0156360712927122,-0.02887994968560947,0.06724249275836681,-3.545815465604589,-0.6089978662417888,-0.9506131325515451,normal
34,10,1.051843223108617,0.0190424132707297,-0.0005028590987481391,2.7213327398393274,-0.39831740984234076,-6.516489706081877,normal
34,11,0.9625725966435492,-0.10441046832046821,0.09402795355265778,0.7928786666784531,-0.021090051981224243,4.3729334815946626,normal
34,12,0.9997023677744902,-0.17387427585406,-0.0017792058196806537,1.7810895769472013,0.49516746837141346,8.028748338784634,normal
34,13,0.942221734545581,-0.07066343389181139,-0.167087319224692,-2.1429212218023297,-0.6825227396792153,-4.36408617005976,normal
34,14,1.1344480782189093,0.24207095480112187,-0.09859387560819173,0.8841036308704966,-0.4158907011404265,-4.217402357721858,normal
34,15,1.0839398331378296,0.056474371095216726,-0.05593782330722,-2.245589610328735,-2.379322456092727,-0.5249130109084713,normal
34,16,0.9578272533542713,-0.10668954963732447,-0.0028764491940719895,0.8497407903948355,-0.8118308880544283,1.1041195257016976,normal
34,17,0.9689327553791762,0.06245325371110863,-0.02735138620454853,-3.7368914977633105,-0.5984387181341506,-2.4418051764583604,normal
34,18,0.9848257815163483,-0.044026106630881405,-0.013984097080466494,-1.9210036473048457,2.0091637159811437,0.8606664650413768,normal
34,19,0.9820467973057717,0.03500873360265931,0.1542211886544803,1.8913742188094764,-1.0399282534133212,-2.7182692991012827,normal
35,0,1.06234706677012,-0.22641142350062335,0.023571344143426785,-1.2557525681663302,2.3137058405964,3.1346504119323377,normal
35,1,1.010650753832182,-0.08419601875397222,0.11556444791308969,-1.9332179062523962,0.04172984703479451,4.461394621638761,normal
35,2,1.0308360218428512,-0.2113859404879818,-0.18526316719219263,0.9429900500167208,1.276510036224664,-6.308040386298947,normal
35,3,1.046211881051323,-0.016814624323355638,0.01957156884357248,-4.085197596991356,-1.879946679599051,4.698142432159848,normal
35,4,0.989590527028219,0.15261927414635318,0.13045392354737032,2.031856534965772,0.17553503172126153,-0.2799160850829353,normal
35,5,0.9694138826794773,0.06675055219054987,-0.03912244495090788,5.624773980424969,-1.844577329550226,-2.468873208148925,normal
35,6,0.9715933148300737,-0.04432060244260627,-0.16868411644975168,4.710428195816684,-2.609668100502277,-0.3087806112438282,normal
35,7,1.0782299967061326,0.25793966573201577,0.10751093229140503,-3.7668139480714977,-1.768901414456884,2.777243516417274,normal
35,8,1.0670888017469586,0.19881552154384224,-0.03853645185653789,-1.8031298024431375,-0.4392182028044771,1.1142596032314027,normal
35,9,1.0642109125128227,0.07731712774180212,-0.04889766952758632,3.4162355724462685,-0.2643852055782674,-0.4753551935622362,normal
35,10,1.0396016776738637,0.08605359793139133,-0.03225439792019267,0.7433656499043032,1.3179728130587303,4.92937565976511,normal
35,11,0.9544473840288246,-0.16582440457040215,0.09898040391896648,0.6162128984546595,3.8909957280353464,-5.1545157239996,normal
35,12,1.0437050458649522,0.11227722965503834,-0.17514844457790799,-1.8782199930173888,4.580560589308401,-0.613194834931084,normal
35,13,0.985128715577827,-0.008914506473137622,0.07488185749536817,8.227538908927379,4.123870543245208,-2.6246674735979605,normal
35,14,1.0575780883188601,0.04011670471897923,-0.05300477899743028,-12.352549559817716,-7.989304826903734,1.2861109492785092,normal
35,15,1.0130304140210002,0.14168376197823118,-0.06383026700130244,2.890634635439305,0.34203138458583304,-2.415218156309124,normal
35,16,1.0355453378778208,0.05424625131646304,-0.17923900807112453,-0.7755686659800012,2.033156121179317,-6.193032645839635,normal
35,17,1.0605854103865762,-0.08117907133903464,-0.017977199704196967,-3.4971877838980907,-0.6537160612352833,-0.15904988387899271,normal
35,18,0.9220294249111874,0.014800533333767074,-0.08247416421889978,-0.8038651292724629,-2.5496931423035822,-3.109574734175642,normal
35,19,1.0246738957122339,0.189434461064024,0.09356152811604632,1.8773513024926571,3.8315470268105467,-2.445750165148032,normal
36,0,0.9959259552126508,-0.005409838896356687,-0.02584333998485839,-1.8541617614970123,-0.3679697730998353,5.820378577966866,normal
36,1,1.0473104564207816,0.03194740751754499,-0.14335711935911177,-2.276184573727622,0.4869158698759949,-2.870793758054582,normal
36,2,0.9927191781039602,0.04485513980890197,0.003952730262435103,-3.9558363804132073,-3.6909378778187785,1.950946622509846,normal
36,3,1.0237609412337814,0.06404443807758173,-0.007896049099139959,-4.355644172710531,1.8443117649830634,3.0608393050908926,normal
36,4,0.94450983403786,-0.0773336701528881,-0.019598360632152173,-3.2511287359051613,-3.9895401352160285,5.167687366405254,normal
36,5,1.045294064722848,0.025793958667675365,-0.10373025658338941,3.8691921717044404,1.6793213699859542,4.041285700628833,normal
36,6,0.9696704400966362,0.03850281382983435,-0.04745448148001467,4.65385951296726,-4.395218907127968,-0.5734455621535466,normal
36,7,1.039020559677963,-0.046238383712092816,-0.059706543405222225,-0.9957328023117542,-0.8140072459199192,-0.41468981003587563,normal
36,8,1.0649444932875949,-0.00862379420625132,0.049562061945813946,-3.284389429211279,-0.5975343781705502,-3.1663782585266302,normal
36,9,1.0548389073017308,0.13433634826328228,-0.1498910827746349,-4.26812722534577,0.27952556296069414,0.43567373466941967,normal
36,10,1.0483669977108019,0.09981808093001332,-0.05000696926536692,3.5284294170078088,-1.8202297877131683,1.0118857821074254,normal
36,11,0.980792464922463,-0.05345269769362987,0.02622955906397715,2.907726685066769,2.9619733118803953,0.5409144969122847,normal
36,12,1.091257064510661,-0.19902581381950812,-0.10564865986208771,2.265103327104792,3.0015927098542634,-3.0710500374307035,normal
36,13,0.976703293492232,0.0034182883852918395,-0.08318787910070885,0.42207541318505626,-0.748632247971227,0.8566049858617228,normal
36,14,0.9939964527467702,0.11633274050056262,-0.0651123364194655,-1.093976998137524,0.33967705609656784,2.0295079780388736,normal
36,15,0.9698982237247599,0.019495284692210332,0.19243986949968697,-0.9980052177684551,1.9085502831735184,-5.813636315160956,normal
36,16,0.978459106938276,0.047451687585702874,-0.0367908915531698,-4.517186055743018,-1.9146844637824594,2.5287471988115966,normal
36,17,1.0045788112055707,-0.07170436527755943,-0.01866035998264754,-3.4183715897196043,3.114411959707706,-3.392515558933174,normal
36,18,1.0600683838748965,-0.05863025020216411,-0.1328977582085259,1.2027310085613852,0.6006267311152523,0.547402002025713,normal
36,19,0.9272933800906717,-0.026969802382036646,0.10122469240258206,-0.42092285677728825,2.715610893053353,3.2786840151561316,normal
37,0,0.9469117271364479,0.04210253722153948,0.0034342257630820294,-2.0027246985452316,2.1015603079987963,0.5233500761871642,normal
37,1,0.9424642520467327,0.16465432087952203,0.05497927820886666,-0.697933063354939,1.2107586434352668,-7.169613332326275,normal
37,2,1.030512537533498,0.10018506885456009,-0.10439533586156205,-1.283810669290869,-1.970093834353006,6.694560216642296,normal
37,3,0.8942232228360499,-0.16957651832382634,0.15710602713220848,1.2120665393138677,1.549259730777047,-0.31173880840790974,normal
37,4,0.922538709832185,5.855754255213795e-05,0.19910198245643926,3.384543891554588,-1.466547705988693,1.0476879688570069,normal
37,5,0.988013388516419,0.07070755231175475,-0.20477188293109633,8.051696683776125,0.8844174689063137,3.822904116541907,normal
37,6,0.9348196285191075,0.11240706834998473,-0.18160134659966365,2.855828410410215,-1.477431157267529,-1.2162296015585197,normal
37,7,1.0913624245072044,0.028774714736995683,0.10511451643908509,1.605693908413691,3.6117295996224477,-3.6731008245667196,normal
37,8,0.9378311166576474,0.05483962782634343,-0.012830851851823217,-1.0595337879007438,-1.5748263100960624,5.802172958012264,normal
37,9,1.002378376177631,-0.09523573476397637,-0.08982006443230654,-1.5422994288021634,4.06992900832493,3.261647877864255,normal
37,10,1.044794704220755,0.021749973100592235,-0.14386178333418417,0.9839560831764673,-3.2552731761190747,-3.675943526375904,normal
37,11,0.9855450983674773,0.08974809556117244,0.038030211954668915,4.035816022542017,-5.817350741568607,6.170137269659759,normal
37,12,1.0001541638323457,0.05515686477358344,0.08816445289822948,3.402369793725282,-4.0543551629476315,2.3150816872952897,normal
37,13,1.0189901718717675,0.09063812723184411,0.02087849538332997,-2.8649827225475963,-0.2608049748402331,2.6142265116161028,normal
37,14,0.8917461582230866,-0.0899616530180268,0.28517416982493726,0.0721696732162176,0.11630706621919298,-3.423929150312989,normal
37,15,0.9916666374933221,0.08821182450203302,0.0120914206464496,6.435221004090254,1.3433725316444893,0.012844407964619657,normal
37,16,1.0457499046855405,0.09792738399615075,-0.10234623724758218,6.0051331184058485,0.4399539742185402,2.706629952904678,normal
37,17,1.00891708001761,0.05906836863193787,0.015452527753044166,0.7027720706744075,1.3527269146934484,1.3801622567361838,normal
37,18,1.0857269769511417,0.04592285210504368,-0.15442761999858393,2.313394169254322,-0.00983361563691916,1.2071626448076065,normal
37,19,1.0042806933808086,-0.026818431084545732,0.0954468511747454,0.6823509004424639,2.606690285566283,-0.7826682113049943,normal
38,0,1.0176169303237481,-0.06323557846022851,-0.032993019165469616,-0.569689132197007,0.5488714382522524,0.3894706688768437,normal
38,1,1.1387615763586603,0.13454278227631178,0.1821942641318497,2.0467462039887225,-4.336893151996738,2.346274504182915,normal
38,2,0.8971342268929756,0.06882906451406048,0.10771046953727939,-5.514051644345187,1.68217865730147,-5.1253522791729305,normal
38,3,0.9926648968392079,0.009625950118479776,0.022248535368020652,0.10377979257480283,3.4516779425129656,0.1443231999875497,normal
38,4,1.03757465362018,0.020232524858633614,-0.039360326372603,4.552319427377597,-2.9701947811639164,-2.1641215394476854,normal
38,5,0.9809279598940057,-0.020527527289585238,0.0737421212798451,1.506996398471483,0.735908029721764,-2.851340080925045,normal
38,6,0.9031761527220332,-0.04019337070813506,-0.036535417923216455,-1.2147112781132043,3.0620354562556793,-1.5748615136745718,normal
38,7,0.956152113424242,0.012555603777634908,-0.0037083221784154873,1.8129665369071697,5.392020544304966,0.5003033886617876,normal
38,8,0.9661707325657775,-0.02088779875940121,-0.01555281417890356,8.710794347918817,-4.606949008952476,0.46721414656694915,normal
38,9,1.0565047522316862,0.02066967817012953,0.005981153883882513,4.293728938529032,1.6830238324233622,-3.5925888189217066,normal
38,10,1.0258282258557507,0.054087965110047,-0.11054213358373516,-1.9086110912537992,2.1735403547569914,1.6447056321914943,normal
38,11,1.0043045820993488,0.11078195795624762,0.05761698202957194,-1.974419088219729,-0.7019781379594082,2.69970128031073,normal
38,12,0.9402069678184427,-0.006847179414303316,-0.03277492971474401,3.4483059953526443,-0.8600928430647531,4.351720087399584,normal
38,13,1.0145571957071564,-0.059993543594874445,-0.24043867417702255,-1.3492963691524567,4.928556748840251,1.0730056936335128,normal
38,14,0.986015050202684,0.2226734257211163,-0.24190464078034252,0.6100749342032361,0.6150253654689217,0.9971371024662294,normal
38,15,1.0583300574377779,-0.028160463531863057,0.00550015063038998,4.258419687836404,3.8475064899745157,2.120694825486736,normal
38,16,0.9585481963455852,0.08531850405769026,-0.06871817864767162,0.17330312528656064,-4.734403940887406,4.277426816360124,normal
38,17,0.9867489183050429,0.0167163529933388,0.05784829535503642,2.3766157550212226,2.6451029068143557,5.566144886218463,normal
38,18,1.0280122931304876,0.08781461440179825,0.11297890426034657,-1.6028211943159798,-1.2451875450716932,-2.15496203777814,normal
38,19,1.0160904415734804,0.012125379416806775,0.03152890675329033,2.345640796131165,0.3415475475459782,3.5992422462699905,normal
39,0,1.019848992518473,-0.06751159619270201,0.014599153631419538,0.5501214275676783,5.480711566812147,-4.5377959399935826,normal
39,1,0.9960500259299725,-0.04334118544053052,0.20350301177652025,5.652382652001102,7.201121428490857,1.0056308596500383,normal
39,2,0.9887046547347893,-0.023531676048379507,0.1352439515422686,-2.599991820509321,2.2042572829535,-0.2795959668301472,normal
39,3,1.0482371580370557,-0.13018867699232195,-0.030669654908954676,2.28588811197518,-3.8932333236946666,-0.8164792616037926,normal
39,4,0.9403618513024398,-0.09867533860595336,-0.06302295934494377,-2.4563621626262044,-1.5239984359089704,2.1583866374241154,normal
39,5,1.0191472031356703,-0.06554565979481614,-0.021172441991320498,2.332869020847292,2.2879530522738563,-3.0893409044657827,normal
39,6,0.9689197798634024,0.05068441846855415,0.021504770886985165,-3.7638582581237716,1.123561455023816,-5.171092857158264,normal
39,7,1.0510513470105298,0.012217125645922372,-0.10651581289051973,1.8059278926154274,-4.574711328104954,0.29319801423927405,normal
39,8,0.9949792526665313,0.06708655651583043,-0.0538637425588005,-4.065567666024808,-2.9494291776460733,-0.5641928348518921,normal
39,9,0.987799165364389,0.01096520591550934,0.1843670567553815,3.2696196208834083,-0.0015061256552464804,3.861896689754186,normal
39,10,0.9862966115969332,-0.05735281049869417,0.05795640034953656,2.788109367760571,-3.344585134976186,4.778646600759222,normal
39,11,0.9995606895356709,-0.16345081113800564,-0.0758173422069855,2.7802674157969474,-1.931795686427198,-4.609889537840774,normal
39,12,1.0178734783381225,-0.028690736579309067,0.06930466227439663,1.2645068369003116,-2.0155151990961,4.228712638502574,normal
39,13,1.0192602905193566,0.06468203552183914,0.045721002769042694,0.5431859433149215,3.257067996971056,-0.5499233991655599,normal
39,14,0.9492707984490008,-0.014199155503448269,-0.12691369728844493,-7.369026889838906,-3.0569179554456696,-1.002541843961308,normal
39,15,1.0018814355103354,-0.06508567736943043,0.10262679919154703,-0.9996223403253486,2.6914695315042576,3.8488200847006744,normal
39,16,0.9205207837642817,-0.12350277714304617,-0.0197144984002917,-1.4163290301835625,3.648631177579657,-0.2812387950011674,normal
39,17,1.0587350992695634,0.1033032433457344,-0.06788182466398567,0.14390130554571864,2.248157641928424,-0.2836632447752525,normal
39,18,1.014148883955607,0.22950006999865202,-0.08087903777505623,2.771310485782192,-2.1974363010674423,-2.827925464456481,normal
39,19,1.051828841925641,0.0770069701732765,-0.053009933232721164,2.4033424572700595,-2.361561526740225,-5.518362711012493,normal
40,0,1.0021495441859403,-0.06488291309849249,0.0015198227520299599,-0.06697209623351863,7.051426709870466,-4.7868422596372415,normal
40,1,1.0158126676335173,-0.11001253665886826,0.07289360670909192,-5.7052577071285056,-2.8559561059862353,2.0699096143281284,normal
40,2,1.072437208000146,-0.04842239636456245,-0.10114230370513265,1.0225816800837784,0.9184660990451378,1.8994615852592918,normal
40,3,1.0357300351430703,-0.1298111845567512,0.053905283784356765,-3.002480886827752,-3.0924870969334304,3.4133060910503166,normal
40,4,1.0772640816268946,-0.052069895401286884,-0.005887553076566172,2.3731425322675217,2.9016810183195187,2.2068233240975763,normal
40,5,0.8902170968146532,0.030926974459128204,0.06839960257090684,0.6365774220706731,-0.05080517200095459,1.439405260855899,normal
40,6,0.9482487229557942,0.06802324349503701,-0.17348395688191942,-1.39549392793727,-0.5319994202497714,7.967417807313126,normal
40,7,1.0699918977094818,0.14723408509893895,0.12320631779415203,3.3620523390746415,-1.8240646662267226,-1.2706197491381854,normal
40,8,1.0303863981079218,-0.0034946582558727903,0.18793381683347454,-2.1535154617351364,2.959680053391253,-0.8578258217066207,normal
40,9,0.8860734527596533,-0.05975652703362932,-0.12773382691378665,-2.3525790937727376,2.2659084474991786,2.5902610728692492,normal
40,10,1.0255786296684097,-0.03682664436695319,-0.00360982562977899,4.958708009248864,0.9290943316831242,3.9968467869250097,normal
40,11,0.9990760923183811,-0.02806497110106714,-0.2984430381209023,1.8733050492136356,-0.34580591568318736,2.838647340504692,normal
40,12,0.9253759162812296,0.035921766900975476,-0.1008821825139147,-2.9164948715159076,-1.1254119650148813,0.20080704556930024,normal
40,13,1.0522137213000742,-0.05191455571761666,0.01425381984072528,-4.934996277158819,-2.8370309418107507,1.9918993664718259,normal
40,14,1.035025310243706,-0.04088450620710169,-0.07717619331081957,0.896942145984936,-2.759671513950413,1.8669834870240032,normal
40,15,0.9657868790681149,0.08896802642000787,0.03066665063273538,2.092018938996741,-2.384282199484847,-2.2761266940331746,normal
40,16,0.9628049839528466,-0.007299458071102285,0.14347871075822263,2.389616809683041,-3.141153246531473,-2.7684920955251924,normal
40,17,0.9707144459528263,0.09509204477443206,0.01336374786762404,6.282233380886676,0.1503600177242577,6.682492896752478,normal
40,18,1.0127782607327238,-0.07298117279375214,0.05590273269745935,-1.6056214532299227,-1.5840643670250354,-6.063594899946664,normal
40,19,1.0954681423522696,0.19512798170941945,0.02895768426179492,-3.74289146290389,-1.9901101665770062,-2.266854706419525,normal
41,0,1.0226576510747305,0.025992047359568327,0.0361912218079019,3.0940730175733653,1.6866089302309935,1.1593732788298245,normal
41,1,0.9043194379221903,0.03477138408551631,0.130870494286176,-6.3191489289584695,-0.5638112753809053,-0.3181936930739974,normal
41,2,1.0343426748681555,0.09091385949319669,-0.009942094309367228,2.7895943373902448,-3.3414440433053523,1.9829467060401833,normal
41,3,1.0384873447346015,0.1398118115971537,0.03769653405364424,-1.9154694898814961,-0.8203385226924778,0.6032751907526496,normal
41,4,0.9554821041371009,0.06951630402740887,0.031056304297108955,2.7417591997708852,0.7350349970594012,-5.356778860461022,normal
41,5,0.9844400661572354,0.1169089934781126,0.030016540554891398,0.9049151790720749,0.45062392978069543,0.828988602835643,normal
41,6,1.0377803515067592,0.1350633647262817,-0.016713961944019723,-3.7318133093174133,-1.598156546413219,2.8504777510200556,normal
41,7,1.004137470330215,-0.030409050195626605,0.10578685913208663,0.6655634895691978,-5.3861501812178005,4.472753036002483,normal
41,8,0.9433543005279502,-0.07964912051786652,-0.01087445505752369,-0.9815455481467124,-1.8568178520937728,-1.9988607711070536,normal
41,9,1.0082189484330266,-0.10484032630798619,-0.1432053761481329,2.5680429471774513,1.93737535776275,0.3662066698655724,normal
41,10,1.0110969176883045,-0.182517295259205,-0.040237655256954746,0.5206741352341651,2.3016596717168842,2.174011305989438,normal
41,11,1.039120573373503,0.06948730328814405,0.14186765328259718,-7.091036934606187,1.3651118600915755,-1.9328105927337091,normal
41,12,0.9661261168138374,0.022614988240953027,-0.07504860669147084,4.467697709183573,-1.5468692502782075,-1.3952907596186575,normal
41,13,0.9489496155002464,0.14096803070709282,-0.10932410617889476,0.3973198639547093,1.7392681597735116,-0.8348603630090575,normal
41,14,1.0272869369460318,-0.0015911521484166702,0.00019468771494517763,-2.1663606093584793,-0.9672834751126089,1.7258745106714892,normal
41,15,1.0365826563762424,-0.08764770842021322,-0.14366034218269144,-0.007916190837578312,-4.821247222048549,2.0376649878897464,normal
41,16,0.9626227462845145,0.04125006662451361,0.03070480985441425,-1.7637353518347085,-5.20572171548897,-0.5875354396853913,normal
41,17,1.0619339589469847,-0.12024415452763448,-0.1509160364748392,1.5415179440560804,-1.9147256787151445,4.427863085541394,normal
41,18,0.9301689198365056,-0.032398635624930165,-0.006877761524597025,3.428743701364418,2.487934856652582,-2.76244763136513,normal
41,19,0.943273249130513,0.023783718314818687,-0.014261829837934756,3.529794350328651,2.3448128324227895,-7.327244520692959,normal
42,0,0.9725251019448998,0.11402327908091497,-0.15120214528192094,3.4036562382718363,-5.9388734045798675,0.43288532584541395,normal
42,1,0.8644593288898371,-0.02845873440045353,-0.21038173434056856,-0.21465050599358237,-0.8352257091644031,1.2752037611311207,normal
42,2,1.0138415586550835,-0.06864729158849084,0.1458519735160013,1.8790756150474883,6.345338333265696,-2.015724739417349,normal
42,3,0.9647696862754139,0.017483069339439227,0.018993101897194324,3.528709912963457,-0.8717626761654559,-0.11920952624777692,normal
42,4,1.0082495496104,0.07344695446439319,-0.14284086313170472,-3.155152430125008,-0.6426301488231396,-4.325424200258187,normal
42,5,1.0217889730842036,-0.14975968286947616,0.07755771219488625,5.019773405240261,-4.22559723742553,2.9894021481199666,normal
42,6,1.0048950180529157,0.0487639321852843,0.029773795026992896,4.599496324045576,0.16541553960925642,0.07309425510199119,normal
42,7,1.0326108073116835,-0.0450649853723985,-0.12507863738529887,0.4444428481989578,-2.258134090394171,-0.014153541560881673,normal
42,8,1.0528531326037156,-0.03959220857928445,0.038548286866200585,0.31136240542178184,-1.6493903727717711,-1.6953753212294105,normal
42,9,0.9510958909499021,0.14854453511378946,0.1012551624774728,0.32651273697757643,1.303886197649113,-3.967556317586154,normal
42,10,0.9910970273076083,0.17641308307792228,0.07220991390449844,8.171768217173495,-1.3944925897951448,-2.8056924285752514,normal
42,11,1.045585506346059,0.042853396197933116,-0.041773849158873055,-3.1357196860244887,-2.1612595711279488,1.0175128085517975,normal
42,12,1.0749347781424683,0.3101541372765565,0.06884493055383022,4.831831402721132,0.059840286860866794,6.1488409164584255,normal
42,13,1.0854214107353417,0.14877672132700492,0.09916894619434785,5.745047468302719,-1.2108757219038426,-1.9365227930598907,normal
42,14,0.9589054430862216,0.030670016822935145,0.01628089391783946,-2.2535953711354777,1.1454289939571984,2.20118760249489,normal
42,15,1.0872232313304673,-0.07583566813757636,0.11305081982197351,3.071027036916729,1.1820369459977962,3.270238579001142,normal
42,16,0.9394403957346694,-0.0007717246070681035,0.08271870479262186,5.062785289934707,-6.238266532237353,-2.408272503020514,normal
42,17,0.9628386965980111,-0.10093182973193227,0.0012360837878770518,-2.3346523250964264,-1.386805232076668,1.7426392868868925,normal
42,18,0.9631845141566877,-0.04298197243193972,0.025022313565311205,-2.56058477988648,2.6766750372279575,3.4867083385883992,normal
42,19,1.0727398266358699,-0.06311905474559389,0.16392255752489346,0.8046526016028991,0.7223080050958943,0.5922650722518361,normal
43,0,1.0142977746137987,0.2008731748855584,0.03997478241996922,-0.7514070366428023,0.4210777171084878,-3.5258215840434834,normal
43,1,1.0204074889659,-0.10715927678352347,0.2226415657560497,-0.3806095448664318,-0.9665556175615491,1.6951112259886734,normal
43,2,0.9188622490930528,-0.02544461417767024,-0.011730769059319406,1.8197635209896252,-1.869193051256146,-1.0463704426309106,normal
43,3,1.0014423215717252,0.02532113025690846,0.0741985547237658,-2.2339113773042865,1.444841555502196,4.6605199146038565,normal
43,4,1.0637927623545742,0.16322040216219294,-0.0727867296576442,1.1559865565894953,-2.039695895948297,1.3687852918805374,normal
43,5,1.0917847803403244,0.0655399749702285,-0.03885194689999652,-6.614376659639543,2.286994491429872,0.7135420325970883,normal
43,6,1.0242780550120976,-0.007923920642704979,-0.1090903732735965,0.6277924953340472,-1.1039028005795664,7.424435892151793,normal
43,7,1.0438583938340285,0.01018845898827188,0.029608212812466457,1.7079853437731982,-0.2276138158857919,4.236341671409515,normal
43,8,0.9638585345778479,0.09873483944861158,0.21705365229692675,2.786960422866523,-3.903401849483861,-4.309582622535877,normal
43,9,0.9769272703364512,-0.04740493007378968,-0.01672980121952425,-4.01201485954723,1.453644687504351,-1.0628853960452045,normal
43,10,1.0109818352488333,-0.11874813360969216,-0.04287336046296285,-2.6078278603277196,-2.290183645402855,3.006739006961237,normal
43,11,1.0402970180411446,0.11268420020750028,0.04430456967582048,2.3840400396568993,-4.082703926177306,0.8748342003334144,normal
43,12,1.0512995562580296,0.12802666218690897,0.09459442084204754,-2.655392629298876,-3.48779692278391,-1.2926320367741149,normal
43,13,0.9629951464452531,0.09964208988275017,0.03162356662289447,-1.0311276937522666,-1.3052451536602028,5.067163040073113,normal
43,14,0.9537253784816427,-0.13342358424511636,-0.07404445187083798,-0.3263353345747936,1.958974799076012,2.6257520902537133,normal
43,15,1.0082697250990054,0.0006020831676219763,0.0717140657095771,-0.24730315631114236,3.006058504029933,-0.18655085598690568,normal
43,16,0.9804077399632675,0.10790174244023465,0.13351673002813036,4.3735783032705875,1.119783228860189,7.683022505688297,normal
43,17,0.9521335060080982,-0.031735311841228006,0.08238619643754892,-2.145721321753039,-4.250973988040773,1.475721238823866,normal
43,18,0.9636934290081671,-0.009564085726987538,-0.021548434104838674,0.6081922926129956,-0.9557190986952793,-3.3225759953653036,normal
43,19,1.0630767839547697,0.0323886472894738,-0.18742877675985567,-0.3313950278413749,0.7185811751156663,5.591675611930374,normal
44,0,1.0470092114796794,0.047434358739865234,0.1485196753056008,0.2047272095857972,-1.5083186040663703,-1.900458496804658,normal
44,1,1.0362695846078833,-0.03680272567831526,-0.2350899552308262,-0.7858442004808637,4.607061425255947,-0.5522520285236561,normal
44,2,0.9816744545927718,-0.07947642576212782,-0.08692636134928045,2.0195836958289126,1.4661538825409073,4.710314690392552,normal
44,3,0.8878043804751637,0.08105738384232927,-0.014482160091203428,-1.4801154335724975,2.039026493738375,-3.0186841561601687,normal
44,4,0.9007841932475291,-0.34067950390493834,-0.08196628835389949,-2.6396496471258803,2.520109514322323,-5.975258896494649,normal
44,5,0.9625788510680302,-0.08683858690317725,0.01234557990089946,2.4067421368116566,3.938049661083005,-0.9399375926113605,normal
44,6,1.0100177135577264,-0.07532755225969616,0.11350336810674755,2.723051285644822,-0.49542728910141054,-3.1914241762971924,normal
44,7,1.0307338565605366,0.10164023593854365,-0.005122230912019812,2.610048105685016,-6.092176755981162,2.145220880685872,normal
44,8,1.0914467342891165,0.026971203415463347,-0.009498838251266855,4.840272474868053,-3.2491399220215897,4.2412925535162,normal
44,9,0.9666955124956177,0.03584754390011829,-0.08910987833844052,3.2467137575067246,-3.0132936405991626,-4.229249542634751,normal
44,10,0.9668512917681823,-0.019479687584766453,0.08679682160044505,0.3935379289804422,5.72597934601677,-4.379613697758578,normal
44,11,0.9113866828697748,0.10438609656767249,0.18328206006499612,-2.0800697118933535,-3.4965396901566983,-1.2576726373652485,normal
44,12,0.9950284490454827,-0.04376444255782821,-0.06767173451327489,-3.022040221150452,4.0210850899565145,-0.5552899649844047,normal
44,13,0.9625876523653584,0.07069140539450088,-0.1272917809956154,3.5987288986307484,-1.6883458645221698,-4.317517350686858,normal
44,14,0.9701202135876746,-0.0540334378725466,0.07304778049331682,8.106417084616272,-3.463043879571356,0.9171284654761035,normal
44,15,0.9908621977725236,-0.022815829974874684,-0.19426073309035638,-0.5427787740140801,-0.4081856180851481,4.841290333598016,normal
44,16,1.0084488513785033,0.160011022810437,-0.07587482482601093,2.3241278538392773,2.118081081684773,4.748769817449453,normal
44,17,1.0667728225471467,-0.004899563424136389,-0.08714870217969688,4.049838600637321,-2.1560706065634907,-3.2695673781631824,normal
44,18,0.9764446334639751,0.04030543538483771,0.08131150777608659,0.790301274297837,1.3751389528261972,-0.5502503019864193,normal
44,19,1.0025933005140035,0.023953415894504594,0.05103282635004641,-2.4616645292954344,1.3996227632918434,-2.5992483496894794,normal
45,0,1.0259364748498851,-0.02840101903229903,0.0490823304801808,2.6291704083587613,-2.124103073476753,5.850321342213695,normal
45,1,1.0421987267773891,0.053005201784897454,-0.018616750097766154,-0.9091960841160007,-2.825028777914243,-1.786242842475136,normal
45,2,0.9489002097516013,0.0829378909171768,0.12137913285829466,-1.638449637629664,0.6124553392132448,-1.8257845884046793,normal
45,3,1.016108678323293,0.1941001333606058,0.051842363915620374,3.2976421926603487,0.21191876639517424,-3.0876670731164486,normal
45,4,1.0057137421813507,-0.050715126975771144,-0.028634025012597306,-1.865351310771959,2.054257757691577,0.1648405892375055,normal
45,5,0.9733518182929016,-0.02967027284013009,-0.03740195457439941,3.7245897692528067,-1.188161482688969,1.8816075868886055,normal
45,6,0.9595018812541569,0.18497203584379815,0.0518832648356521,2.183017924048312,1.735264953253926,3.4322179171326948,normal
45,7,0.9269494076723681,-0.22070681756319277,-0.060764857764232065,-4.072106644126016,-2.864138813392936,-0.050862770435694295,normal
45,8,1.0508336058913945,-0.080651703578077,-0.24459496057835006,-2.5644566807841445,-4.996579916251233,2.8625229939855004,normal
45,9,0.9946854881789813,0.0885865678531801,-0.029347910727591908,1.2188139317546456,0.7725550017952661,-2.9949364460560215,normal
45,10,0.9516833914725807,-0.1881158567504566,-0.15100304685192317,1.539874215338123,0.43714388298948886,0.10407744005074604,normal
45,11,0.9617764046841768,0.0097178746248231,-0.08680554581666533,4.119723553387814,-1.2560507133135645,3.0537282006700854,normal
45,12,0.9588077728900676,-0.040955892927575,0.025035770959613814,-2.9657159302532303,1.3436537271070548,0.8182114136800405,normal
45,13,1.0414390412218626,0.04853851620646697,0.05585184707067146,-5.025726513485097,-3.2497998315765315,3.018844785713718,normal
45,14,0.9763390003209937,-0.0039231119590790306,0.19174749904946262,-2.4478595773588623,4.855831970843912,-1.199165112544264,normal
45,15,1.0037653793709587,-0.056829562161829585,0.04486496888327329,-4.059983239739563,1.2529717749643836,0.7889768429373674,normal
45,16,1.0599547428814917,0.09710495109670036,-0.09310842286159655,0.6371142717052963,-2.824445672811827,1.923553889345775,normal
45,17,0.9924379164245584,0.058712329217487515,0.10062992529225329,-3.0977702309621122,2.8086064887266224,-0.7656645938404774,normal
45,18,0.9965988979487691,-0.06588525198615325,-0.10888516713158765,-0.09758206908138504,-4.325935766281967,-3.689183937365442,normal
45,19,1.1064790162035594,-0.09648070630690395,-0.003139096935211652,1.2700358475486522,4.279233131644103,-0.23581119770519204,normal
46,0,0.9745771128592788,0.16410604356922565,-0.1091934007974613,-1.9684805383068764,-0.0654301996486832,-1.3634745561384904,normal
46,1,1.0211353836396462,0.046259708917547916,0.12852301293868237,-0.999538992953441,2.3825913026873238,2.6763982750427178,normal
46,2,0.94854712061942,0.07475996412070424,-0.038267796187155916,1.0181083574537824,-2.4656546791577396,0.9436720412731873,normal
46,3,0.9863436575747688,0.16678954766406545,0.16392378327871765,-0.6894538602211044,1.764621675138004,-3.762040776118919,normal
